Time_ms,AX,AY,AZ,GX,GY,GZ
1768149426894,-0.00257227,0.000792965,0.998747,-2.33104,1.12762,1.01344
1768149426906,0.00328711,-0.00189258,0.998259,-2.54478,1.00548,0.975267
1768149426918,-0.000619143,0.00250195,1.00705,-2.38447,1.13525,0.876031
1768149426930,-0.00379297,-0.00189258,1.00485,-2.45318,1.12762,0.883664
1768149426942,0.000113279,-0.000671878,1.00461,-2.45318,1.21159,0.891298
1768149426953,-0.00208399,0.00274609,1.00339,-2.43027,1.28792,0.967634
1768149426965,-0.00306055,0.00128125,0.997282,-2.31577,1.12762,0.982901
1768149426977,-0.000130862,-0.00116016,1.0007,-2.36157,1.16579,0.914199
1768149426988,-0.00257227,0.000304684,1.00265,-2.2089,1.23449,1.05924
1768149427000,-0.00183985,6.05434e-05,1.00339,-2.39974,1.12762,1.05924
1768149427012,0.00401953,0.00250195,0.995329,-2.21653,1.18105,0.906565
1768149427024,0.00328711,0.000792965,1.00168,-2.43791,1.39479,0.952366
1768149427035,-0.00306055,0.00543164,1.00217,-2.26997,1.32609,0.730992
1768149427047,0.000357419,-0.0079961,1.00265,-2.30814,1.14289,0.883664
1768149427059,0.00279883,0.00225781,0.997526,-2.29287,1.10472,0.860763
1768149427071,0.00450781,-0.00189258,1.00046,-2.37684,1.32609,0.990534
1768149427082,-0.00525782,0.000304684,1.01047,-2.30814,1.19632,0.952366
1768149427094,0.00548437,-0.00384571,1.00607,-2.35394,1.31846,1.05924
1768149427106,-0.00403711,0.00469922,1.00021,-2.39211,1.28029,0.944733
1768149427118,0.00426367,0.00274609,1.00558,-2.46844,1.24212,1.03634
1768149427129,0.00328711,0.000304684,1.00509,-2.24707,1.29556,0.85313
1768149427141,-0.00232813,0.00176953,0.998503,-2.39211,1.11998,0.883664
1768149427153,0.000845701,-0.00335743,0.998991,-2.29287,1.21922,1.04397
1768149427165,-0.00330469,6.05434e-05,1.00534,-2.26234,1.08945,1.08977
1768149427176,0.000357419,0.000792965,0.998015,-2.3005,1.02075,0.868397
1768149427188,-0.00135157,-0.00311328,0.994597,-2.3234,1.21159,1.08977
1768149427200,-0.00232813,-0.0014043,1.00314,-2.21653,1.29556,0.883664
1768149427212,0.00157812,6.05434e-05,0.994353,-2.61348,1.18105,0.96
1768149427223,-0.00403711,0.000548825,1.00973,-2.40737,1.13525,1.02107
1768149427235,0.00450781,0.0051875,1.00143,-2.42264,1.13525,0.914199
1768149427247,-0.000863284,-0.0014043,0.996794,-2.33104,1.21922,0.96
1768149427258,-0.00232813,-0.00604297,0.996794,-2.43027,1.05892,1.0058
1768149427270,0.000113279,0.000548825,1.00217,-2.29287,1.36426,0.944733
1768149427282,0.00157812,-0.00555469,1.00778,-2.45318,1.15052,0.975267
1768149427294,0.00768164,-0.000183597,1.00949,-2.41501,1.07418,0.799695
1768149427305,-0.00110742,0.000304684,0.998503,-2.36157,1.17342,0.952366
1768149427317,-0.00232813,-0.002625,1.0029,-2.39974,1.19632,1.0287
1768149427329,0.00328711,-0.00213672,0.994353,-2.35394,1.19632,1.10504
1768149427341,0.00182226,0.000304684,1.00558,-2.44554,1.30319,0.96
1768149427352,0.00353125,0.00689648,1.00241,-2.2547,1.15815,0.952366
1768149427364,-0.00257227,-0.000916019,1.0029,-2.41501,1.24976,0.975267
1768149427376,-0.000375003,-0.0014043,0.999724,-2.19363,1.25739,0.998168
1768149427388,0.0020664,0.00225781,1.00754,-2.39974,1.24212,1.12794
1768149427399,0.00426367,0.00225781,1.01071,-2.49134,1.38716,0.906565
1768149427411,0.00450781,0.00421093,0.999235,-2.43027,1.08182,0.898931
1768149427423,0.00060156,0.000304684,1.00094,-2.12493,1.05128,1.10504
1768149427435,0.000845701,0.00128125,1.00046,-2.42264,1.13525,0.799695
1768149427446,-0.00330469,0.00396679,1.0112,-2.28524,1.11998,1.0287
1768149427458,-0.00452539,0.00128125,0.993376,-2.36157,1.12762,0.860763
1768149427470,-0.000863284,0.00469922,1.00265,-2.2318,1.19632,0.921832
1768149427482,-0.00306055,0.00494336,1.00412,-2.44554,1.12762,0.952366
1768149427494,-0.000863284,0.00543164,1.00656,-2.26997,1.10472,0.868397
1768149427505,0.00646093,0.00250195,1.00217,-2.37684,1.04365,1.04397
1768149427517,-0.00501367,0.00128125,1.00021,-2.39211,1.17342,0.876031
1768149427529,0.00279883,0.00543164,1.00143,-2.30814,1.18105,0.967634
1768149427541,0.00475195,0.00152539,1.00314,-2.33104,1.11998,0.937099
1768149427552,-0.000619143,-0.00238086,1.00461,-2.43027,1.36426,1.0058
1768149427564,-0.00110742,-0.000671878,1.00485,-2.19363,1.05892,0.898931
1768149427576,0.00304297,0.000792965,0.993132,-2.43027,1.12762,0.982901
1768149427588,0.0020664,-0.000671878,1.00339,-2.37684,1.19632,0.96
1768149427599,0.00060156,0.00591992,1.00143,-2.26997,1.23449,0.937099
1768149427611,0.00060156,0.00445507,1.00607,-2.39211,1.18869,0.830229
1768149427623,0.0020664,0.000792965,0.999724,-2.45318,1.24976,1.06687
1768149427635,-0.00232813,0.00128125,1.0068,-2.24707,1.37953,0.906565
1768149427646,0.00182226,0.000792965,1.00265,-2.26234,1.18869,0.845496
1768149427658,0.000113279,-0.00238086,0.990202,-2.33867,1.16579,1.08977
1768149427670,0.000113279,-0.00311328,1.00192,-2.44554,1.22685,0.929466
1768149427682,0.00548437,0.00299023,0.998015,-2.2776,1.21922,1.06687
1768149427693,-0.00306055,0.000792965,1.00314,-2.20127,1.28029,0.96
1768149427705,0.00328711,-0.00335743,1.00314,-2.21653,1.07418,0.891298
1768149427717,-0.00476953,0.00665234,1.00241,-2.37684,1.21159,0.944733
1768149427729,-0.000375003,-0.002625,1.00705,-2.39974,1.29556,0.830229
1768149427740,0.00401953,-0.00286914,1.0007,-2.35394,1.24976,0.876031
1768149427752,0.00377539,-0.000916019,1.00827,-2.1631,1.38716,1.0974
1768149427764,0.00890234,0.00347851,1.00509,-2.33104,1.29556,1.01344
1768149427775,0.00060156,-0.0014043,1.0029,-2.36157,1.16579,0.990534
1768149427787,-0.00281641,0.000792965,1.00851,-2.49898,1.30319,0.891298
1768149427799,-0.000619143,0.00201367,1.00851,-2.23944,1.18869,0.891298
1768149427811,0.00328711,0.000304684,1.00925,-2.37684,1.22685,1.0745
1768149427822,0.000357419,0.00201367,1.00827,-2.33104,1.32609,1.0058
1768149427834,0.000113279,-0.000671878,1.00705,-2.39974,1.21159,0.952366
1768149427846,0.00157812,0.00299023,1.00314,-2.26997,1.30319,1.02107
1768149427858,0.00060156,-0.00116016,0.998991,-2.36157,1.04365,0.822595
1768149427870,0.00133398,-0.000183597,1.00143,-2.2318,1.16579,0.952366
1768149427881,0.00108984,0.00299023,1.00461,-2.37684,1.32609,0.937099
1768149427893,-0.00183985,0.00225781,1.00265,-2.40737,1.22685,0.982901
1768149427905,-0.000375003,-0.00189258,1.00265,-2.33867,1.24212,0.738626
1768149427916,0.00475195,0.00372265,0.996062,-2.1631,1.28029,0.784428
1768149427928,-0.00159571,-0.00116016,1.00436,-2.39974,1.16579,0.998168
1768149427940,-0.00281641,-0.0014043,1.00436,-2.46081,1.21922,0.753893
1768149427952,0.00328711,0.000548825,1.01169,-2.39211,1.24976,0.929466
1768149427963,0.00377539,-0.002625,1.00363,-2.33867,1.31082,0.906565
1768149427975,-0.00257227,0.00128125,1.00558,-2.40737,1.25739,0.929466
1768149427987,0.00255468,-0.00555469,1.00705,-2.43027,1.12762,0.799695
1768149427999,0.00182226,-0.000427738,0.99655,-2.33867,1.07418,0.921832
1768149428010,0.00548437,0.000304684,1.00436,-2.31577,1.14289,0.860763
1768149428022,-0.00110742,-0.00189258,1.00705,-2.26997,1.21922,0.990534
1768149428034,-0.00428125,-0.00213672,1.00143,-2.46081,1.10472,0.906565
1768149428046,-0.000130862,0.00372265,0.998259,-2.2776,1.12762,0.929466
1768149428057,0.00231054,-0.000916019,0.99948,-2.45318,1.20395,0.799695
1768149428069,-0.000130862,0.000548825,0.998747,-2.40737,1.18105,0.837863
1768149428081,-0.00550196,0.00616406,1.00509,-2.37684,1.13525,0.982901
1768149428093,0.00572851,0.00396679,0.998015,-2.36157,1.39479,0.944733
1768149428104,0.000357419,0.00372265,1.00314,-2.30814,1.24976,1.05924
1768149428116,0.00499609,-0.00384571,1.00021,-2.26997,1.15815,0.883664
1768149428128,-0.0069668,0.00201367,0.993132,-2.26234,1.27266,1.0287
1768149428140,0.00621679,0.000548825,1.0029,-2.24707,1.09708,0.868397
1768149428151,0.000357419,0.00689648,1.00241,-2.43791,1.21159,0.990534
1768149428163,0.00353125,0.0051875,1.00412,-2.2776,1.31082,1.01344
1768149428175,-0.00452539,-0.00457813,0.99948,-2.2776,1.18869,0.914199
1768149428187,0.00499609,0.0100703,0.998747,-2.39974,1.00548,0.868397
1768149428198,-0.00110742,-0.000916019,0.995573,-2.39974,1.15815,0.96
1768149428210,-0.00159571,0.00323437,1.00876,-2.36157,1.30319,0.914199
1768149428222,0.00353125,-0.00116016,0.986784,-2.30814,1.15815,0.929466
1768149428234,-0.00501367,0.000548825,1.00509,-2.39974,1.20395,1.02107
1768149428245,-0.00452539,-0.00189258,1.00265,-2.38447,1.09708,1.0974
1768149428257,-0.0081875,0.00836132,1.00802,-2.34631,1.22685,0.906565
1768149428269,-0.00159571,0.00445507,0.998991,-2.45318,1.29556,0.952366
1768149428281,-0.000619143,0.000548825,0.999968,-2.33867,1.27266,0.990534
1768149428292,-0.000130862,0.00347851,1.00802,-2.33104,1.18105,1.14321
1768149428304,-0.0069668,-0.00189258,1.01095,-2.26997,1.15052,0.929466
1768149428316,0.00060156,0.00396679,1.00168,-2.43027,1.27266,0.914199
1768149428328,-0.000619143,0.00103711,0.995573,-2.34631,1.18869,0.982901
1768149428339,0.00108984,0.00347851,1.00705,-2.2547,1.09708,0.944733
1768149428351,-0.0069668,0.00421093,0.99948,-2.33104,1.18869,1.01344
1768149428363,-0.000130862,0.000304684,1.01047,-2.47608,1.00548,0.883664
1768149428375,0.00304297,-0.002625,1.0029,-2.40737,1.39479,0.868397
1768149428386,-0.00379297,-0.00335743,1.00143,-2.44554,1.20395,1.05924
1768149428398,0.00524023,0.00396679,1.00632,-2.3234,1.24976,0.998168
1768149428410,0.00499609,-0.000916019,1.00509,-2.3234,1.17342,0.906565
1768149428422,-0.000619143,0.00347851,0.998503,-2.41501,1.25739,0.837863
1768149428433,0.00182226,0.00299023,1.00217,-2.39211,1.17342,0.898931
1768149428445,-0.000375003,-0.00457813,1.00583,-2.2089,1.19632,0.921832
1768149428457,-0.00135157,0.000304684,0.997282,-2.38447,1.29556,0.883664
1768149428468,-0.00306055,0.00323437,0.995573,-2.34631,1.18105,0.914199
1768149428480,0.00060156,-0.000671878,0.996306,-2.2089,1.25739,0.998168
1768149428492,0.00694922,0.00103711,1.00705,-2.33867,1.33373,0.998168
1768149428504,0.0020664,0.00103711,0.995085,-2.35394,1.05892,0.952366
1768149428515,-0.00354883,-0.0014043,1.00973,-2.36921,1.24212,0.891298
1768149428527,-0.00330469,-0.000916019,1.00558,-2.39211,1.02075,0.898931
1768149428539,-0.000375003,0.000304684,1.009,-2.45318,1.18105,1.04397
1768149428551,0.00401953,0.00494336,1.00094,-2.46844,1.22685,0.807328
1768149428563,-0.00403711,-0.00116016,0.995329,-2.36921,1.19632,0.921832
1768149428576,0.00304297,0.00225781,1.00168,-2.3234,1.04365,0.944733
1768149428589,0.00646093,0.00176953,1.00607,-2.41501,1.38716,0.982901
1768149428602,-0.00281641,-0.00384571,1.00412,-2.26997,1.18869,0.914199
1768149428614,0.00108984,0.000304684,0.994597,-2.43027,1.25739,1.04397
1768149428627,-0.00232813,0.00128125,0.99069,-2.46081,1.02075,0.898931
1768149428640,-0.0081875,-0.000916019,1.00607,-2.37684,1.11998,1.0287
1768149428653,-0.00232813,0.000792965,1.00436,-2.2776,1.18105,1.01344
1768149428666,-0.00110742,-0.000183597,1.00021,-2.19363,1.15052,0.860763
1768149428678,0.0020664,0.000304684,1.00119,-2.23944,1.28029,1.04397
1768149428691,-0.00501367,-0.00213672,1.00851,-2.40737,1.09708,0.914199
1768149428704,0.00597265,0.00445507,1.00168,-2.36921,1.05128,0.898931
1768149428717,-0.00232813,-0.002625,1.0029,-2.48371,1.13525,0.876031
1768149428730,0.00255468,-0.000183597,1.00192,-2.39211,1.24976,0.96
1768149428742,0.00646093,6.05434e-05,1.00461,-2.40737,1.26502,1.03634
1768149428755,0.00279883,6.05434e-05,1.00094,-2.36157,1.19632,1.18137
1768149428768,0.00133398,0.00274609,1.00632,-2.24707,1.08182,0.822595
1768149428781,-0.00110742,-0.00335743,1.00363,-2.28524,1.28029,0.860763
1768149428793,-0.000375003,-0.000916019,0.998259,-2.3234,1.10472,0.914199
1768149428806,-0.0057461,-0.002625,0.997038,-2.61348,1.15815,0.929466
1768149428819,0.00279883,-0.00457813,1.00925,-2.36157,1.29556,1.0287
1768149428832,-0.00232813,-0.00311328,1.00387,-2.43027,1.28029,0.929466
1768149428844,0.00182226,0.00323437,1.00705,-2.46844,1.11998,0.967634
1768149428857,0.000845701,0.00299023,1.00705,-2.39974,1.12762,0.898931
1768149428870,-0.00135157,-0.000671878,1.00387,-2.43027,1.20395,0.74626
1768149428883,0.000357419,-0.000671878,1.00265,-2.36921,1.37189,0.967634
1768149428896,0.00108984,0.00201367,1.00339,-2.33104,1.12762,0.975267
1768149428908,0.0020664,0.00225781,1.00509,-2.38447,1.25739,1.03634
1768149428921,-0.00330469,0.00250195,1.00778,-2.24707,1.11235,0.914199
1768149428934,0.00621679,0.00347851,0.99948,-2.2547,1.03602,0.898931
1768149428947,0.00279883,0.00543164,1.00461,-2.23944,1.17342,0.700458
1768149428959,-0.000619143,-0.00189258,0.998747,-2.23944,1.05892,0.967634
1768149428972,-0.00452539,0.00250195,0.992644,-2.24707,1.18869,0.990534
1768149428985,0.00108984,6.05434e-05,1.00925,-2.45318,1.00548,0.906565
1768149428998,-0.00110742,0.00152539,1.00656,-2.45318,1.13525,0.967634
1768149429010,0.00060156,-0.00335743,1.00509,-2.37684,1.20395,0.830229
1768149429023,0.000113279,0.00250195,0.995573,-2.26997,1.21159,0.937099
1768149429036,0.00060156,0.000548825,1.00656,-2.28524,1.13525,0.952366
1768149429049,0.00060156,0.00421093,1.00436,-2.40737,1.25739,0.814962
1768149429061,0.00060156,0.00128125,1.00705,-2.34631,1.29556,0.883664
1768149429074,0.00304297,0.000792965,1.00436,-2.49134,1.21922,0.944733
1768149429087,-0.00232813,-0.000183597,1.00436,-2.36157,1.09708,0.883664
1768149429100,-0.00354883,6.05434e-05,1.00217,-2.15547,1.38716,0.944733
1768149429112,0.000113279,-0.002625,1.0029,-2.39211,1.15052,0.868397
1768149429125,-0.00428125,-0.000671878,0.998503,-2.2318,1.27266,0.898931
1768149429138,-0.00159571,0.00103711,1.00802,-2.52951,1.15052,1.02107
1768149429151,0.00426367,0.00201367,1.00876,-2.3234,1.18105,0.85313
1768149429164,-0.00281641,-0.00335743,1.00119,-2.3234,1.20395,1.08214
1768149429176,0.00255468,-0.000671878,0.992644,-2.28524,1.26502,0.929466
1768149429189,-0.00306055,0.000792965,1.00461,-2.38447,1.10472,1.0287
1768149429202,0.00108984,0.000792965,1.01022,-2.40737,1.14289,1.05924
1768149429215,-0.00232813,0.00689648,1.00925,-2.41501,1.08945,0.85313
1768149429227,-0.00159571,0.00201367,1.00754,-2.31577,1.28792,0.937099
1768149429240,-0.00281641,0.00665234,0.994108,-2.26997,1.21922,1.08977
1768149429253,0.00108984,-0.0014043,1.00607,-2.2776,1.14289,0.898931
1768149429266,0.00255468,-0.00189258,1.01047,-2.34631,1.22685,0.944733
1768149429278,0.00108984,0.00323437,0.989226,-2.38447,0.959679,0.860763
1768149429291,-0.00403711,-0.00384571,1.00558,-2.30814,1.25739,0.891298
1768149429304,0.00353125,-0.002625,0.999235,-2.49898,1.21159,0.929466
1768149429317,0.00401953,0.000548825,0.99655,-2.36157,1.26502,0.914199
1768149429329,-0.00354883,-0.00482227,1.0029,-2.2089,1.26502,1.01344
1768149429342,-0.00110742,0.00201367,1.00509,-2.2547,1.40243,0.929466
1768149429355,0.00182226,-0.000916019,0.999724,-2.2776,1.15815,1.10504
1768149429368,0.00572851,-0.00335743,0.998991,-2.40737,1.14289,0.85313
1768149429380,0.00182226,-0.000183597,1.00021,-2.36157,1.08182,0.898931
1768149429393,0.0074375,-0.000183597,0.998991,-2.38447,1.15052,0.96
1768149429406,0.0020664,0.00665234,1.00241,-2.49898,1.14289,0.944733
1768149429419,0.00182226,0.000548825,1.01071,-2.47608,1.07418,0.967634
1768149429431,-0.00501367,-0.00579883,1.0007,-2.45318,1.19632,0.982901
1768149429444,-0.00306055,-0.00311328,0.999724,-2.40737,1.20395,0.792061
1768149429457,0.00524023,-0.00335743,1.00412,-2.31577,1.37189,0.982901
1768149429470,0.00060156,-0.00311328,0.998015,-2.44554,1.35663,1.02107
1768149429483,0.00255468,0.00225781,1.00119,-2.46844,1.16579,0.914199
1768149429495,-0.00354883,-0.0014043,1.00876,-2.28524,1.19632,0.868397
1768149429508,-0.00110742,0.00347851,1.00119,-2.26997,1.11235,0.883664
1768149429521,0.00450781,0.00372265,1.00168,-2.36157,1.16579,0.792061
1768149429534,-0.000130862,-0.00238086,1.00339,-2.20127,1.17342,1.0058
1768149429546,0.00182226,-0.000916019,0.99948,-2.23944,1.33373,0.914199
1768149429559,-0.00232813,0.0064082,1.00192,-2.54478,1.18105,0.944733
1768149429572,0.00279883,0.00225781,0.995817,-2.30814,1.24212,0.860763
1768149429585,-0.00330469,0.000548825,0.99948,-2.36921,0.974947,0.761527
1768149429597,0.00328711,-0.00164844,1.0007,-2.43027,1.05892,0.967634
1768149429610,-0.00476953,0.00225781,0.995573,-2.17073,1.40243,0.944733
1768149429623,-0.00110742,-0.00238086,1.00094,-2.21653,1.14289,0.906565
1768149429636,-0.00257227,-0.00213672,0.997038,-2.22417,1.20395,0.937099
1768149429648,-0.000375003,0.00176953,1.00119,-2.2318,1.14289,0.830229
1768149429661,-0.00281641,0.000548825,0.999968,-2.38447,1.41006,1.0745
1768149429674,-0.00135157,0.00225781,0.99948,-2.33104,1.29556,0.76916
1768149429687,-0.00672266,0.00128125,0.998503,-2.2776,1.31846,0.784428
1768149429699,0.00279883,-0.00116016,0.999235,-2.2547,1.28792,0.96
1768149429712,0.0020664,0.00152539,0.999235,-2.3234,1.37953,0.937099
1768149429725,0.000113279,0.000792965,1.00656,-2.29287,1.00548,1.02107
1768149429738,-0.00354883,-0.000427738,1.00217,-2.33104,1.20395,0.96
1768149429751,-0.00183985,-0.00335743,0.997038,-2.29287,1.08945,1.05924
1768149429763,-0.00208399,0.00201367,1.00754,-2.46844,1.21922,0.883664
1768149429776,-0.000619143,-0.00286914,0.995817,-2.48371,1.38716,0.799695
1768149429789,0.0020664,0.00372265,1.0029,-2.37684,1.15052,0.85313
1768149429802,0.00279883,0.00421093,1.01022,-2.45318,1.03602,0.937099
1768149429814,-0.000863284,0.00274609,1.00339,-2.3005,1.24212,1.05924
1768149429827,-0.00501367,0.00299023,0.997038,-2.41501,1.11998,0.860763
1768149429840,0.0020664,0.000548825,1.00363,-2.35394,1.21159,1.01344
1768149429853,0.00279883,0.00176953,1.00046,-2.34631,1.07418,0.891298
1768149429865,0.00426367,0.00323437,1.00192,-2.46081,1.23449,0.784428
1768149429878,-0.0057461,-0.00311328,0.998747,-2.28524,1.29556,1.21191
1768149429891,-0.00110742,0.00299023,1.00632,-2.41501,1.08945,1.01344
1768149429904,-0.00306055,0.00274609,1.00632,-2.22417,1.10472,0.975267
1768149429917,0.00060156,0.00128125,1.00094,-2.40737,1.18869,0.975267
1768149429929,-0.000619143,0.00591992,0.998015,-2.43027,1.14289,0.914199
1768149429942,-0.00891992,0.00128125,0.997526,-2.44554,1.23449,1.0058
1768149429955,0.00182226,0.00372265,1.00778,-2.50661,1.12762,1.0287
1768149429968,-0.00501367,-0.00677539,1.00217,-2.29287,1.18869,0.921832
1768149429981,-0.00135157,-0.00213672,0.995573,-2.3234,1.03602,1.02107
1768149429993,-0.00159571,-0.000671878,0.998259,-2.42264,1.11235,0.876031
1768149430006,0.00182226,-0.00116016,1.00192,-2.40737,1.19632,1.0745
1768149430019,-0.00354883,-0.00311328,1.00314,-2.55241,1.29556,0.929466
1768149430032,0.00401953,0.00176953,1.00363,-2.24707,1.35663,1.03634
1768149430044,-0.00135157,0.00103711,0.998747,-2.38447,1.21922,1.0974
1768149430057,0.00475195,-0.000183597,1.00339,-2.39211,1.25739,1.0516
1768149430070,-0.00257227,-0.00189258,1.0029,-2.43027,1.21922,0.860763
1768149430083,0.00060156,0.00469922,1.00509,-2.49134,1.28029,0.868397
1768149430095,-0.00183985,0.0076289,1.00632,-2.36921,1.30319,0.990534
1768149430108,0.000113279,-0.00433399,1.00241,-2.36157,1.22685,0.891298
1768149430121,-0.000375003,0.000304684,0.995329,-2.35394,1.27266,0.868397
1768149430134,0.00353125,0.00469922,0.996794,-2.41501,1.27266,0.883664
1768149430146,0.00450781,-0.00238086,0.997526,-2.39211,1.15052,0.975267
1768149430159,-0.00647852,0.00299023,1.00778,-2.24707,1.19632,1.04397
1768149430172,0.000357419,-0.000427738,1.00168,-2.41501,1.15052,1.11267
1768149430185,-0.00501367,-0.00116016,0.990935,-2.37684,1.19632,0.906565
1768149430197,0.00255468,0.000792965,0.998503,-2.3005,1.16579,0.845496
1768149430210,-0.00501367,-0.00189258,1.00241,-2.30814,1.29556,1.0058
1768149430223,-0.00379297,-0.00286914,1.00119,-2.29287,1.18105,0.975267
1768149430236,-0.00135157,-0.00701953,1.0112,-2.31577,1.15815,1.02107
1768149430249,-0.00159571,0.00347851,1.00632,-2.44554,1.25739,0.921832
1768149430261,-0.000375003,-0.000427738,1.00339,-2.42264,1.28029,1.12031
1768149430274,0.000113279,0.00665234,0.996794,-2.2547,1.18105,0.967634
1768149430287,0.000113279,-0.000427738,1.00778,-2.31577,1.33373,0.967634
1768149430300,0.000113279,-0.000671878,0.998747,-2.28524,1.11235,0.891298
1768149430312,-0.00110742,0.00152539,0.997771,-2.2776,1.11235,0.952366
1768149430325,-0.000863284,0.00250195,1.00851,-2.47608,1.33373,0.822595
1768149430338,-0.000619143,-0.000916019,1.00778,-2.33104,1.17342,1.01344
1768149430351,0.00108984,0.00152539,1.00119,-2.45318,1.30319,0.85313
1768149430363,-0.00159571,-0.00506641,0.998991,-2.46844,1.28792,0.929466
1768149430376,-0.00183985,0.00347851,0.99948,-2.26997,1.28029,1.06687
1768149430389,0.00475195,-0.00360157,0.996306,-2.46844,1.25739,0.921832
1768149430402,-0.000863284,0.00347851,1.00607,-2.33867,1.08182,0.937099
1768149430414,-0.000375003,0.00714062,0.995817,-2.33867,1.14289,0.921832
1768149430427,0.00133398,0.000304684,1.00339,-2.2776,1.21159,0.937099
1768149430440,0.00133398,-0.000183597,1.00949,-2.33867,1.08182,0.906565
1768149430453,0.0086582,6.05434e-05,1.009,-2.1173,1.08945,0.906565
1768149430465,0.000113279,-0.00189258,1.00241,-2.34631,0.997847,0.85313
1768149430478,0.00231054,-0.000916019,1.00827,-2.38447,1.27266,1.01344
1768149430491,0.00133398,-0.000427738,0.997526,-2.43027,1.28029,0.837863
1768149430504,0.00279883,-0.00408985,0.999724,-2.39211,1.26502,0.998168
1768149430517,-0.00550196,0.00372265,1.00534,-2.40737,1.33373,0.990534
1768149430529,0.000357419,0.00347851,1.01047,-2.47608,1.27266,0.998168
1768149430542,0.00279883,-0.00311328,1.00461,-2.2318,1.16579,0.914199
1768149430555,0.00548437,0.00421093,1.00778,-2.29287,1.12762,0.944733
1768149430568,-0.000619143,0.000304684,1.01047,-2.38447,1.12762,0.975267
1768149430580,-0.00403711,0.00176953,1.01071,-2.42264,1.21922,0.876031
1768149430593,-0.00428125,0.00250195,1.00802,-2.36921,1.25739,0.998168
1768149430606,0.00231054,-0.000671878,0.998991,-2.43027,1.15052,0.937099
1768149430619,0.00304297,-0.0014043,1.00265,-2.33867,1.23449,0.990534
1768149430631,0.0020664,0.00665234,1.00436,-2.34631,1.30319,0.96
1768149430644,0.000357419,0.00176953,0.995329,-2.2547,1.15052,0.929466
1768149430657,0.00133398,-0.000916019,1.00534,-2.39974,1.36426,0.952366
1768149430670,0.00401953,0.00103711,1.00583,-2.37684,1.24212,0.967634
1768149430683,0.00499609,-0.00116016,0.99948,-2.51424,1.11998,1.08977
1768149430695,0.000845701,-0.0014043,1.01095,-2.33867,1.13525,0.990534
1768149430708,0.00108984,-0.000916019,1.00485,-2.40737,1.10472,0.85313
1768149430721,0.000845701,-0.0014043,1.00705,-2.24707,1.18105,0.937099
1768149430734,-0.000375003,-0.000916019,1.0029,-2.15547,1.15052,1.02107
1768149430746,0.0020664,-0.00311328,0.995573,-2.17837,1.28029,0.967634
1768149430759,-0.00672266,0.000304684,0.997771,-2.47608,1.18105,0.937099
1768149430772,0.00499609,0.00176953,0.998747,-2.30814,1.13525,0.998168
1768149430785,-0.000375003,0.00347851,0.999724,-2.46081,1.15052,0.830229
1768149430797,0.00328711,0.00274609,0.998747,-2.51424,1.31082,0.937099
1768149430810,0.00328711,-0.000671878,1.00168,-2.36921,1.12762,0.906565
1768149430823,-0.000375003,6.05434e-05,0.998259,-2.50661,1.23449,0.998168
1768149430836,-0.000375003,0.000304684,1.00558,-2.10966,1.19632,0.85313
1768149430848,-0.000130862,0.0051875,1.00876,-2.29287,1.24976,0.990534
1768149430861,0.00353125,0.00396679,1.0029,-2.37684,1.10472,0.898931
1768149430874,0.00157812,-0.00335743,1.01999,-2.14783,1.23449,0.96
1768149430887,-0.000375003,-0.00628711,0.999968,-2.40737,1.26502,0.921832
1768149430900,-0.00135157,0.000548825,0.99655,-2.37684,1.19632,0.868397
1768149430912,0.00133398,0.000548825,1.00778,-2.2776,1.24976,0.921832
1768149430925,0.00182226,0.00347851,1.00192,-2.2318,1.13525,0.845496
1768149430938,0.0020664,0.00347851,1.00094,-2.40737,1.20395,1.0516
1768149430951,0.00060156,-0.000183597,1.0007,-2.28524,1.16579,0.74626
1768149430963,0.00060156,0.00323437,1.00485,-2.38447,1.21159,0.921832
1768149430976,-0.00550196,-0.00213672,0.99948,-2.20127,1.25739,0.967634
1768149430989,-0.000130862,-0.00116016,0.998015,-2.52188,1.21159,0.799695
1768149431002,-0.00110742,0.000548825,1.00363,-2.35394,1.20395,0.860763
1768149431014,-0.000619143,0.00201367,1.00314,-2.34631,1.22685,0.876031
1768149431027,0.00279883,0.00323437,1.00583,-2.36921,1.28029,0.883664
1768149431040,-0.00306055,0.00591992,0.998991,-2.3005,1.25739,1.0287
1768149431053,0.00670508,0.00445507,0.998747,-2.3234,1.20395,0.85313
1768149431065,-0.00110742,-0.00286914,1.00046,-2.35394,1.15815,1.03634
1768149431078,-0.00379297,-0.00677539,1.00485,-2.2089,1.13525,0.937099
1768149431091,-0.00110742,-0.000916019,1.00217,-2.36921,1.23449,1.05924
1768149431104,0.00475195,0.000792965,1.00973,-2.43791,0.959679,0.998168
1768149431116,-0.000375003,-0.00408985,1.00265,-2.41501,1.15815,0.868397
1768149431129,0.00353125,0.00201367,0.997282,-2.37684,1.13525,0.898931
1768149431142,-0.000619143,-0.002625,1.00363,-2.26997,1.34136,0.784428
1768149431155,-0.000619143,-0.00433399,1.00119,-2.44554,1.25739,0.914199
1768149431167,0.00157812,0.00494336,1.00217,-2.36157,1.13525,1.10504
1768149431180,-0.00525782,6.05434e-05,1.00583,-2.44554,1.18869,1.01344
1768149431193,-0.00183985,0.00543164,1.0007,-2.29287,1.08945,0.967634
1768149431206,-0.0057461,-0.00506641,0.995573,-2.43791,1.29556,0.921832
1768149431219,-0.000619143,-0.00433399,1.0029,-2.49134,1.15052,0.967634
1768149431232,-0.00159571,0.00225781,1.00265,-2.45318,1.31846,0.845496
1768149431244,0.00108984,-0.00116016,1.00339,-2.23944,1.26502,0.807328
1768149431257,-0.00354883,0.00494336,0.999724,-2.34631,1.18869,0.937099
1768149431270,-0.00110742,0.00591992,1.00314,-2.44554,1.23449,1.01344
1768149431283,-0.00183985,0.000792965,0.996794,-2.3005,1.22685,1.01344
1768149431295,0.00377539,0.00421093,0.999968,-2.19363,1.19632,0.85313
1768149431308,-0.00403711,6.05434e-05,1.00534,-2.33104,1.25739,1.08214
1768149431321,-0.00135157,-0.00311328,0.998991,-2.26997,1.24976,1.0287
1768149431334,0.00060156,0.00152539,1.00949,-2.44554,1.13525,0.845496
1768149431346,0.00426367,-0.00579883,1.00949,-2.44554,1.18869,0.807328
1768149431359,0.00157812,0.000304684,1.01022,-2.28524,1.04365,0.975267
1768149431372,-0.00110742,-0.00335743,1.00485,-2.26234,1.18105,0.937099
1768149431385,0.00157812,0.000548825,1.00778,-2.26997,1.21922,1.0058
1768149431397,-0.00623438,-0.00189258,1.00436,-2.46844,1.15052,1.13557
1768149431410,-0.00550196,0.00152539,0.995329,-2.28524,1.08182,0.906565
1768149431423,0.00475195,0.00176953,1.0068,-2.34631,1.19632,0.891298
1768149431436,-0.00525782,0.0051875,1.0134,-2.3234,1.33373,0.96
1768149431448,-0.000863284,6.05434e-05,1.00534,-2.38447,1.24976,0.998168
1768149431461,0.000113279,0.00152539,0.995085,-2.44554,1.25739,0.952366
1768149431474,0.00719336,6.05434e-05,1.00241,-2.36157,1.24976,0.898931
1768149431487,0.00182226,-0.00213672,0.994108,-2.38447,1.16579,0.967634
1768149431499,0.00426367,0.00152539,1.0007,-2.38447,1.12762,0.975267
1768149431512,-0.00330469,0.00884961,1.00436,-2.3005,1.24212,0.876031
1768149431525,-0.00281641,0.00274609,0.99948,-2.43791,1.26502,1.01344
1768149431538,-0.00232813,0.00347851,0.992155,-2.2547,1.33373,0.982901
1768149431551,-0.00159571,-0.00408985,0.998747,-2.38447,1.20395,0.799695
1768149431563,0.0020664,-0.0014043,1.00241,-2.30814,1.08182,1.0058
1768149431576,0.00646093,-0.000916019,1.00412,-2.3234,1.27266,0.982901
1768149431589,-0.00110742,-0.00213672,1.00973,-2.37684,1.20395,1.05924
1768149431602,-0.00110742,-0.00116016,0.997771,-2.2318,1.05892,0.837863
1768149431614,0.00108984,-0.000916019,0.999235,-2.19363,1.11998,0.906565
1768149431627,-0.00159571,0.000792965,0.995817,-2.40737,1.04365,1.02107
1768149431640,-0.000375003,0.000304684,0.999724,-2.52188,1.24212,0.807328
1768149431653,-0.00110742,0.00225781,0.996062,-2.46844,0.997847,0.914199
1768149431665,0.00914648,-0.0014043,1.00143,-2.33104,1.25739,0.761527
1768149431678,0.00548437,0.000792965,0.998015,-2.34631,1.14289,0.921832
1768149431691,0.00401953,6.05434e-05,1.00265,-2.3005,1.29556,0.830229
1768149431704,0.00255468,0.000792965,1.00119,-2.36921,1.17342,0.876031
1768149431717,-0.00110742,-0.0014043,1.00461,-2.36157,1.12762,1.14321
1768149431729,0.00133398,0.00347851,0.999235,-2.49898,1.12762,1.03634
1768149431742,0.00108984,0.00372265,0.99655,-2.39211,1.13525,0.944733
1768149431755,0.00328711,-0.000427738,1.00217,-2.36157,1.11235,0.914199
1768149431768,-0.00306055,0.00152539,1.00412,-2.36157,1.15815,0.845496
1768149431780,0.00133398,0.000792965,1.00802,-2.33867,1.32609,0.967634
1768149431793,0.00939062,-0.00164844,1.0007,-2.33867,1.14289,0.952366
1768149431806,-0.00232813,0.00689648,0.995085,-2.45318,1.03602,0.891298
1768149431819,0.0020664,0.00299023,1.00802,-2.40737,1.18105,0.85313
1768149431831,-0.00159571,6.05434e-05,1.00119,-2.33867,1.18105,0.898931
1768149431844,0.00426367,0.00567578,1.00705,-2.37684,1.21922,0.906565
1768149431857,0.000357419,-0.000183597,1.00436,-2.28524,1.21922,1.08214
1768149431870,0.000113279,-0.00189258,0.992155,-2.26234,1.37953,0.845496
1768149431883,-0.00379297,-0.00189258,0.997282,-2.2776,1.14289,1.0745
1768149431896,0.00255468,-0.000183597,0.998503,-2.37684,1.40243,0.914199
1768149431908,0.00157812,0.00274609,1.00461,-2.2776,1.39479,1.01344
1768149431921,-0.00330469,-0.00238086,0.999968,-2.2776,1.00548,0.967634
1768149431934,-0.00330469,0.000548825,1.00021,-2.46844,1.39479,1.0058
1768149431947,0.000357419,-0.000427738,0.996794,-2.46081,1.26502,0.906565
1768149431960,0.00060156,0.000548825,1.01022,-2.35394,1.15052,1.02107
1768149431972,-0.00281641,-0.00189258,1.00412,-2.42264,1.15815,1.02107
1768149431985,0.00279883,-0.00189258,1.01217,-2.43027,1.21922,0.85313
1768149431998,-0.00232813,0.00274609,1.00021,-2.35394,1.28029,0.883664
1768149432011,-0.000863284,0.00103711,1.00558,-2.20127,1.07418,0.937099
1768149432024,0.00890234,0.000548825,0.998259,-2.2547,1.20395,1.0516
1768149432036,-0.00354883,0.00469922,1.00607,-2.43027,1.19632,1.03634
1768149432049,0.00377539,0.00689648,1.00705,-2.36921,1.14289,0.898931
1768149432062,0.00133398,0.00152539,1.00607,-2.36921,1.26502,1.02107
1768149432075,-0.00306055,-0.00116016,1.00339,-2.62111,1.34136,1.0287
1768149432087,-0.00135157,-0.00628711,0.998259,-2.44554,1.05892,0.914199
1768149432100,-0.000863284,-0.000427738,0.992155,-2.24707,1.31846,0.921832
1768149432113,-0.00452539,6.05434e-05,0.995085,-2.41501,1.23449,0.868397
1768149432126,0.00475195,-0.00457813,0.991423,-2.37684,1.31846,1.12031
1768149432138,0.00182226,-0.000671878,1.00802,-2.23944,1.23449,0.944733
1768149432151,-0.00110742,0.00616406,1.00461,-2.39974,1.18105,0.975267
1768149432164,-0.00232813,-0.00360157,1.00998,-2.43791,1.11998,0.96
1768149432177,-0.00550196,0.00103711,1.009,-2.43027,1.15815,0.837863
1768149432189,-0.000863284,0.00347851,1.01388,-2.43027,1.02075,0.921832
1768149432202,-0.00452539,0.000548825,0.995329,-2.35394,1.29556,0.738626
1768149432215,-0.00379297,0.00152539,1.00339,-2.41501,1.15815,0.990534
1768149432228,-0.00452539,-0.002625,1.00509,-2.28524,1.08182,0.914199
1768149432241,-0.00306055,0.00225781,1.00363,-2.31577,1.14289,0.906565
1768149432253,0.000357419,0.00274609,1.00241,-2.26234,1.14289,0.76916
1768149432266,-0.00183985,0.000304684,1.00827,-2.40737,1.28029,1.04397
1768149432279,-0.00281641,0.00128125,1.00461,-2.37684,0.990214,0.975267
1768149432292,0.000845701,-0.000183597,1.00363,-2.3005,1.25739,1.0287
1768149432304,-0.000863284,0.00176953,1.01071,-2.41501,1.19632,0.929466
1768149432317,0.000357419,0.000304684,0.999235,-2.42264,1.24212,0.921832
1768149432330,0.00450781,0.00274609,1.00265,-2.38447,1.21159,0.906565
1768149432343,-0.00379297,0.000304684,1.00363,-2.2776,1.00548,1.08214
1768149432356,-0.00208399,0.00201367,0.998747,-2.2547,1.08182,0.929466
1768149432368,0.000357419,-0.00116016,1.00119,-2.52951,1.10472,0.944733
1768149432381,-0.00501367,-0.00408985,0.994841,-2.33104,1.23449,0.921832
1768149432394,0.00157812,0.000304684,1.00607,-2.1631,1.24212,0.944733
1768149432407,0.00255468,-0.00433399,1.00607,-2.46081,1.05128,0.929466
1768149432419,0.00353125,-0.00164844,1.00705,-2.38447,1.05128,0.937099
1768149432432,0.00133398,0.00250195,1.0007,-2.44554,1.07418,0.990534
1768149432445,-0.000375003,-0.00116016,1.00314,-2.43027,1.10472,0.891298
1768149432458,-0.000375003,-0.00579883,0.99948,-2.29287,1.21922,1.08214
1768149432470,-0.000863284,0.00201367,0.995817,-2.1173,1.11998,0.845496
1768149432483,0.000845701,-0.000427738,0.99362,-2.43027,0.990214,1.03634
1768149432496,-0.00354883,0.00299023,0.999235,-2.44554,1.31846,0.967634
1768149432509,0.00475195,0.000304684,1.0068,-2.45318,1.06655,0.906565
1768149432522,-0.00257227,0.00250195,1.0029,-2.2089,1.21922,0.921832
1768149432534,0.00108984,-0.000916019,0.998259,-2.2547,1.02075,0.85313
1768149432547,0.000113279,-0.0014043,1.00485,-2.36157,1.38716,0.883664
1768149432560,0.00279883,0.00250195,1.00314,-2.29287,1.01311,0.952366
1768149432573,0.00060156,-0.00286914,1.00094,-2.38447,1.01311,1.05924
1768149432586,0.00401953,6.05434e-05,0.999724,-2.40737,1.33373,0.96
1768149432598,0.00328711,-0.00482227,0.996062,-2.35394,1.17342,0.860763
1768149432611,-0.000619143,-0.00116016,1.00119,-2.1402,1.20395,0.937099
1768149432624,-0.00306055,0.00274609,1.00363,-2.52188,1.14289,0.944733
1768149432637,-0.000619143,-0.00213672,1.00265,-2.33867,1.24976,0.761527
1768149432650,0.000845701,0.000792965,1.00534,-2.43027,1.21922,0.868397
1768149432662,-0.00110742,0.00103711,1.00119,-2.26997,1.13525,1.04397
1768149432675,0.00182226,0.00225781,0.999724,-2.51424,1.30319,1.03634
1768149432688,-0.00281641,-0.000183597,1.00387,-2.30814,1.23449,0.876031
1768149432701,-0.0057461,0.00103711,1.00387,-2.39211,1.14289,0.914199
1768149432713,0.00157812,-0.00286914,0.996306,-2.42264,1.01311,0.937099
1768149432726,0.000357419,0.00128125,1.00802,-2.23944,1.25739,0.96
1768149432739,-0.00183985,-0.000427738,1.00363,-2.34631,0.944412,0.906565
1768149432752,-0.00476953,0.000304684,1.01388,-2.36157,1.37189,0.982901
1768149432764,0.00646093,0.00225781,0.99655,-2.41501,1.16579,0.914199
1768149432777,0.00255468,-0.00433399,1.00119,-2.29287,1.05892,0.990534
1768149432790,0.000357419,-0.00579883,1.00363,-2.26234,1.00548,0.921832
1768149432803,0.0020664,6.05434e-05,1.00436,-2.2776,1.16579,0.891298
1768149432815,-0.00257227,-0.00116016,1.00314,-2.3234,1.03602,0.883664
1768149432828,0.0020664,0.000548825,1.00241,-2.37684,1.18105,1.01344
1768149432841,-0.00159571,0.00201367,0.997771,-2.39211,1.15052,0.822595
1768149432854,-0.000863284,0.000304684,1.00632,-2.43791,1.05128,0.876031
1768149432867,0.00182226,-0.000183597,1.00632,-2.3005,1.08182,0.845496
1768149432880,-0.00110742,0.00274609,1.00632,-2.3234,1.31082,0.975267
1768149432892,-0.00208399,0.00347851,0.993864,-2.40737,1.13525,0.937099
1768149432905,0.00231054,0.00103711,0.998991,-2.36921,1.05892,0.937099
1768149432918,-0.00599024,-0.00189258,1.009,-2.1631,1.19632,0.929466
1768149432931,0.00328711,0.00543164,1.00241,-2.36157,1.10472,1.0516
1768149432943,-0.00208399,0.00469922,1.01388,-2.23944,1.18869,0.952366
1768149432956,-0.00403711,-0.00164844,0.997282,-2.39211,1.13525,0.944733
1768149432969,-0.00354883,-0.00213672,0.996306,-2.24707,1.12762,0.990534
1768149432982,-0.00159571,-0.00286914,1.00412,-2.2776,1.26502,0.814962
1768149432995,-0.00232813,-0.00677539,1.00412,-2.23944,1.17342,1.04397
1768149433007,0.00304297,-0.000427738,1.00534,-2.43791,1.14289,0.929466
1768149433020,0.00182226,-0.00164844,1.00485,-2.36157,1.25739,0.85313
1768149433033,-0.00232813,0.00421093,1.00461,-2.34631,1.10472,0.975267
1768149433046,-0.00183985,0.00494336,1.0029,-2.50661,1.16579,0.937099
1768149433058,0.00060156,0.000792965,1.00412,-2.19363,1.24212,0.998168
1768149433071,0.000113279,-0.00189258,0.99069,-2.57531,1.19632,0.876031
1768149433084,0.0020664,6.05434e-05,0.999724,-2.35394,1.20395,0.998168
1768149433097,-0.00232813,-0.00213672,1.00046,-2.39211,1.24212,0.990534
1768149433110,0.000113279,0.00445507,1.00461,-2.37684,1.13525,1.0287
1768149433122,-0.00110742,0.00176953,1.00509,-2.44554,1.25739,0.85313
1768149433135,-0.00428125,0.00250195,1.00192,-2.35394,1.14289,0.845496
1768149433148,-0.00183985,0.00421093,1.00827,-2.30814,1.23449,0.860763
1768149433161,0.0020664,-0.00311328,1.00241,-2.2547,1.18869,0.822595
1768149433173,0.00108984,0.00421093,1.00802,-2.33104,1.22685,0.784428
1768149433186,-0.00110742,0.00469922,1.00094,-2.51424,1.24212,0.837863
1768149433199,0.00182226,0.000304684,0.999968,-2.33867,1.19632,0.944733
1768149433212,-0.000863284,0.000548825,1.00241,-2.47608,1.21159,1.0287
1768149433224,0.00353125,0.00323437,0.997282,-2.42264,1.22685,0.822595
1768149433237,0.00401953,0.00176953,1.00265,-2.30814,1.24212,0.876031
1768149433250,0.00279883,-0.00482227,1.01022,-2.28524,1.34136,0.792061
1768149433263,-0.00354883,0.00323437,0.997771,-2.26997,1.13525,0.837863
1768149433276,0.00060156,-0.00286914,0.998747,-2.51424,1.31082,0.792061
1768149433288,-0.000130862,0.00347851,1.01071,-2.44554,1.11235,0.990534
1768149433301,-0.00379297,0.000548825,1.00436,-2.0715,1.09708,0.891298
1768149433314,-0.00281641,0.00347851,1.00827,-2.33104,1.28029,1.08214
1768149433327,0.00255468,0.00103711,0.990935,-2.2776,1.27266,0.807328
1768149433339,-0.00159571,-0.00116016,1.00094,-2.56768,1.15052,0.807328
1768149433352,-0.00306055,0.00176953,1.00265,-2.44554,1.25739,0.929466
1768149433365,-0.00110742,-0.00457813,0.999968,-2.39211,1.36426,0.921832
1768149433378,0.00157812,0.000548825,1.00851,-2.35394,1.15052,0.891298
1768149433390,0.00255468,-0.00189258,1.00436,-2.19363,1.25739,1.02107
1768149433403,-0.00281641,0.000304684,1.00534,-2.12493,1.19632,1.0287
1768149433416,0.00231054,-0.000671878,1.00265,-2.38447,1.19632,1.04397
1768149433429,-0.00354883,0.00152539,0.994597,-2.20127,1.08182,0.860763
1768149433441,0.00279883,0.000792965,1.00094,-2.43027,1.15052,0.891298
1768149433454,0.00597265,0.00372265,1.00192,-2.39974,1.21159,0.914199
1768149433467,-0.00257227,-0.00189258,1.00217,-2.3005,1.24976,1.01344
1768149433480,-0.00135157,0.00152539,1.00876,-2.41501,1.18869,1.0287
1768149433492,0.00133398,0.000792965,1.00363,-2.33867,1.11235,0.952366
1768149433505,0.00572851,-0.00286914,1.00632,-2.45318,1.07418,1.10504
1768149433518,0.00548437,6.05434e-05,1.00729,-2.39211,1.18105,0.937099
1768149433531,0.000113279,-0.00213672,1.00558,-2.36921,1.05892,0.96
1768149433544,-0.00159571,0.00250195,1.00143,-2.53714,1.30319,0.906565
1768149433556,-0.00452539,0.000548825,1.00656,-2.23944,1.15815,0.891298
1768149433569,-0.000863284,0.00103711,1.01266,-2.37684,1.24976,1.04397
1768149433582,-0.00354883,-0.00116016,0.999724,-2.14783,1.15052,0.845496
1768149433595,0.00304297,0.00250195,0.998259,-2.49898,1.27266,1.01344
1768149433607,-0.00183985,0.00591992,1.00168,-2.3005,1.33373,0.929466
1768149433620,-0.00135157,0.00176953,0.994108,-2.47608,1.21159,0.921832
1768149433633,-0.000619143,0.00299023,1.009,-2.43027,1.29556,1.0745
1768149433646,-0.00525782,-0.000183597,1.00607,-2.17073,1.25739,0.868397
1768149433658,0.00279883,0.00225781,0.998259,-2.49898,0.990214,0.860763
1768149433671,-0.00354883,-0.00311328,1.00046,-2.28524,1.24976,0.952366
1768149433684,-0.00281641,0.00543164,0.994841,-2.49134,1.28792,0.868397
1768149433697,-0.00135157,0.000548825,0.995817,-2.26997,1.26502,0.860763
1768149433709,0.00182226,-0.00213672,1.01022,-2.48371,1.41006,1.11267
1768149433722,-0.00183985,-0.00677539,1.00339,-2.26234,1.11235,0.982901
1768149433735,0.000845701,-0.00213672,1.00973,-2.44554,1.17342,0.830229
1768149433748,-0.00183985,0.00225781,1.00949,-2.35394,1.15052,1.0516
1768149433760,-0.00501367,-0.00677539,1.0029,-2.44554,1.27266,0.998168
1768149433773,-0.000375003,0.00225781,1.00827,-2.43791,1.18105,1.12794
1768149433786,0.00060156,0.00225781,1.00998,-2.36921,1.39479,0.998168
1768149433799,0.00255468,0.000304684,1.00192,-2.39211,1.25739,0.898931
1768149433812,0.000845701,-0.00189258,0.998015,-2.36157,1.11235,0.860763
1768149433824,0.000113279,-0.00238086,1.00558,-2.36157,0.997847,0.921832
1768149433837,0.00182226,0.00176953,1.00168,-2.45318,1.14289,0.860763
1768149433850,-0.00257227,0.00421093,1.00436,-2.43027,1.24976,0.967634
1768149433863,-0.000375003,0.00152539,0.99948,-2.33867,1.35663,0.975267
1768149433876,-0.00403711,-0.0014043,0.993864,-2.21653,1.30319,0.967634
1768149433888,-0.00110742,-0.00531055,1.00265,-2.1173,1.11998,0.845496
1768149433901,0.0074375,-0.00408985,1.00168,-2.31577,1.21922,0.883664
1768149433914,-0.00183985,-0.0014043,1.00363,-2.36921,1.12762,0.845496
1768149433927,0.000113279,0.000304684,0.993132,-2.24707,1.24976,0.952366
1768149433939,-0.00159571,-0.00286914,1.00021,-2.39211,1.15815,0.837863
1768149433952,-0.00794336,-0.00604297,1.00778,-2.46081,1.29556,0.937099
1768149433965,-0.00208399,0.000792965,0.997771,-2.35394,1.11998,0.85313
1768149433978,-0.000375003,0.0064082,1.00412,-2.36157,1.09708,0.906565
1768149433991,-0.00647852,0.00176953,1.00387,-2.3005,1.26502,1.01344
1768149434003,0.00255468,-0.00116016,1.00119,-2.3005,1.21922,0.799695
1768149434016,-0.00306055,-0.00506641,1.00168,-2.28524,1.17342,1.01344
1768149434029,0.00353125,0.00469922,1.00143,-2.40737,1.37189,0.914199
1768149434042,0.00182226,0.00176953,1.00143,-2.52188,1.16579,0.883664
1768149434054,-0.00379297,-0.00579883,1.00339,-2.46081,1.37953,0.860763
1768149434067,0.00279883,-0.00579883,1.00046,-2.2776,1.15052,0.807328
1768149434080,0.000845701,0.000792965,1.00046,-2.38447,1.31846,0.914199
1768149434093,-0.00257227,0.000304684,0.998015,-2.2776,1.12762,0.952366
1768149434105,-0.00257227,0.00176953,1.01388,-2.31577,1.24976,0.822595
1768149434118,0.00475195,0.00372265,1.00656,-2.45318,1.03602,1.0745
1768149434131,-0.00330469,-0.00238086,1.00461,-2.40737,1.21159,0.876031
1768149434144,0.00792578,0.00176953,1.00094,-2.48371,1.21922,0.868397
1768149434157,0.000113279,-0.00360157,1.01047,-2.37684,1.19632,0.753893
1768149434169,0.00255468,0.00347851,0.996306,-2.40737,1.35663,0.822595
1768149434182,0.00426367,0.00201367,0.998991,-2.52188,1.21922,0.876031
1768149434195,-0.00159571,-0.00189258,1.00558,-2.28524,1.15815,1.0516
1768149434208,0.00670508,-0.00189258,1.00534,-2.38447,1.08945,0.952366
1768149434220,0.00255468,0.00323437,1.00168,-2.33104,1.25739,0.876031
1768149434233,-0.000130862,0.00665234,1.00534,-2.39974,1.34136,1.01344
1768149434246,-0.00281641,-0.00238086,1.00485,-2.28524,1.14289,0.982901
1768149434259,0.000845701,0.00787304,1.00973,-2.30814,1.23449,0.990534
1768149434271,0.00426367,0.00494336,1.00607,-2.36157,1.15052,0.990534
1768149434284,-0.00501367,0.00347851,1.00412,-2.36921,1.08945,1.0287
1768149434297,0.00133398,6.05434e-05,1.00827,-2.29287,1.21922,0.883664
1768149434310,-0.00452539,0.00494336,1.00461,-2.36157,1.09708,0.814962
1768149434323,-0.000863284,-0.00506641,0.998747,-2.43791,1.17342,0.982901
1768149434335,0.00499609,0.000548825,1.00534,-2.43791,1.29556,0.837863
1768149434348,0.00328711,-0.00531055,1.0068,-2.43791,1.10472,0.860763
1768149434361,0.000357419,0.00299023,1.00998,-2.38447,1.21922,0.807328
1768149434374,0.00182226,0.00396679,0.999724,-2.45318,1.18869,0.891298
1768149434386,0.00231054,-0.000183597,1.0068,-2.29287,1.00548,1.0287
1768149434399,0.00328711,0.00347851,0.998991,-2.33104,0.974947,1.08977
1768149434412,0.00719336,0.00152539,1.00607,-2.35394,1.10472,0.975267
1768149434425,0.00060156,-0.000427738,1.00925,-2.45318,1.22685,0.952366
1768149434437,-0.00403711,-0.002625,1.00143,-2.38447,1.25739,0.85313
1768149434450,-0.00281641,0.0051875,0.997771,-2.36921,1.18869,1.05924
1768149434463,0.00157812,0.00958203,1.00998,-2.28524,1.21922,0.898931
1768149434476,-0.00330469,0.00225781,1.0068,-2.48371,1.23449,0.883664
1768149434488,-0.000619143,-0.00213672,0.998991,-2.36921,1.20395,0.898931
1768149434501,0.00060156,-0.00335743,0.994108,-2.39974,1.28029,1.0516
1768149434514,0.00133398,0.000792965,1.00534,-2.42264,1.18105,0.967634
1768149434527,-0.00403711,0.00347851,1.00046,-2.26234,1.22685,0.982901
1768149434539,0.00719336,-0.000916019,1.00265,-2.26997,1.19632,0.845496
1768149434552,0.00255468,0.00128125,1.00485,-2.42264,1.31082,0.952366
1768149434565,0.00646093,0.00176953,1.00094,-2.3005,1.11235,1.10504
1768149434578,0.00060156,0.000548825,1.00363,-2.31577,1.18869,0.990534
1768149434591,0.000845701,-0.00311328,1.00021,-2.41501,1.08945,0.85313
1768149434603,0.00133398,0.00103711,1.00509,-2.186,1.08182,0.837863
1768149434616,-0.000619143,-0.000916019,1.01022,-2.44554,1.18869,0.975267
1768149434629,-0.00232813,0.00274609,1.00265,-2.42264,1.15052,1.05924
1768149434642,-0.00428125,0.000548825,1.00802,-2.45318,1.21159,0.799695
1768149434654,0.00524023,-0.00164844,1.00851,-2.33104,1.26502,0.906565
1768149434667,-0.00110742,0.00103711,1.00949,-2.36157,1.07418,0.906565
1768149434680,-0.00110742,0.00836132,0.999968,-2.39211,1.18869,1.01344
1768149434693,0.00279883,-0.00116016,1.00021,-2.42264,1.16579,1.0058
1768149434705,-0.00183985,-0.00311328,1.00656,-2.3234,1.18105,0.990534
1768149434718,-0.000130862,0.00103711,0.995573,-2.2547,1.24976,0.937099
1768149434731,-0.000375003,-0.00238086,1.00363,-2.33867,1.09708,0.975267
1768149434744,-0.00403711,-0.000427738,1.00119,-2.21653,1.16579,1.02107
1768149434756,0.000113279,0.00152539,1.00168,-2.38447,1.14289,1.0287
1768149434769,0.00499609,0.000304684,1.00802,-2.33104,1.14289,0.929466
1768149434782,-0.00330469,-0.000427738,1.0068,-2.55241,1.18105,0.982901
1768149434795,0.0020664,-0.00433399,0.995329,-2.31577,1.23449,0.761527
1768149434808,0.00255468,6.05434e-05,0.998503,-2.3005,1.31082,1.0058
1768149434820,-0.00159571,0.00176953,1.00607,-2.39211,1.16579,0.982901
1768149434833,0.00524023,0.00372265,1.00192,-2.36921,1.10472,1.0058
1768149434846,0.00401953,-0.00335743,0.993864,-2.28524,1.39479,0.929466
1768149434859,0.0074375,0.00323437,1.00217,-2.52188,1.30319,1.06687
1768149434872,-0.000375003,0.00152539,1.00314,-2.41501,1.21159,1.02107
1768149434884,0.00231054,-0.00286914,1.0068,-2.3005,1.19632,1.05924
1768149434897,0.00621679,0.00128125,0.996062,-2.37684,1.20395,1.0745
1768149434910,0.00524023,0.00469922,1.00461,-2.37684,1.18105,1.04397
1768149434923,0.00133398,0.00250195,0.998503,-2.186,1.23449,0.822595
1768149434935,-0.000130862,0.00128125,0.997038,-2.31577,1.05892,1.05924
1768149434948,-0.000619143,0.00665234,0.997771,-2.37684,1.22685,1.0516
1768149434961,0.00524023,0.00567578,0.997526,-2.42264,0.98258,0.929466
1768149434974,0.00133398,-0.00213672,0.996794,-2.2547,1.21159,1.04397
1768149434986,0.00426367,0.00274609,0.995817,-2.26234,1.30319,0.990534
1768149434999,0.00353125,0.00225781,0.997771,-2.31577,1.22685,0.868397
1768149435012,-0.00183985,0.00128125,0.998747,-2.41501,1.20395,0.807328
1768149435025,-0.00159571,-0.00579883,0.993132,-2.28524,1.19632,0.891298
1768149435037,0.000113279,0.00103711,1.00558,-2.38447,1.11998,0.845496
1768149435050,0.000845701,-0.00311328,0.994108,-2.35394,1.21159,0.761527
1768149435063,-0.000863284,0.00152539,1.009,-2.21653,1.14289,0.85313
1768149435076,-0.000619143,0.00225781,1.00583,-2.46844,1.16579,0.952366
1768149435089,0.00475195,0.00201367,1.00509,-2.23944,1.31846,0.830229
1768149435101,-0.00135157,-0.00579883,0.998747,-2.51424,1.32609,0.944733
1768149435114,-0.00281641,-0.00506641,1.0029,-2.23944,1.29556,0.944733
1768149435127,-0.00281641,0.000304684,1.00339,-2.44554,1.38716,1.0058
1768149435140,-0.00428125,0.00469922,1.00143,-2.33867,1.05892,0.990534
1768149435152,-0.00525782,-0.00189258,1.0007,-2.44554,1.28792,0.967634
1768149435165,-0.00281641,-0.00164844,0.995817,-2.39211,1.08945,0.837863
1768149435178,0.00231054,-0.00164844,1.00192,-2.28524,1.29556,0.944733
1768149435191,-0.0057461,0.00494336,0.999724,-2.49898,1.05892,0.929466
1768149435203,-0.00623438,-0.00555469,1.00729,-2.36157,1.11235,0.914199
1768149435216,0.00353125,0.00176953,1.0029,-2.43027,1.22685,0.96
1768149435229,-0.00281641,-0.000183597,0.999968,-2.43791,1.23449,0.944733
1768149435242,-0.000130862,-0.00116016,1.00021,-2.41501,1.11235,0.837863
1768149435255,-0.000863284,0.00347851,1.00094,-2.37684,1.22685,0.967634
1768149435267,0.00157812,0.00152539,1.00949,-2.47608,1.12762,0.967634
1768149435280,0.00524023,-0.00360157,1.00534,-2.42264,1.16579,0.906565
1768149435293,-0.00159571,0.00299023,1.00168,-2.36157,1.05892,1.01344
1768149435306,-0.000375003,-0.00653125,0.98654,-2.41501,1.08182,0.952366
1768149435318,0.00133398,0.00299023,1.00363,-2.186,1.17342,0.937099
1768149435331,-0.00208399,0.00103711,0.998015,-2.36921,1.15052,1.01344
1768149435344,-0.00208399,0.00543164,1.00119,-2.43027,1.15815,0.921832
1768149435357,0.00572851,-0.000183597,1.00876,-2.26234,1.32609,0.921832
1768149435369,0.00328711,0.00201367,0.996062,-2.37684,1.22685,0.937099
1768149435382,-0.00403711,0.00372265,0.995329,-2.39211,1.26502,0.898931
1768149435395,0.000113279,0.00299023,1.00534,-2.46844,1.28029,1.03634
1768149435408,0.0086582,-0.00189258,0.998503,-2.21653,1.34899,1.0058
1768149435420,-0.00208399,-0.00213672,0.997771,-2.62875,1.12762,0.990534
1768149435433,0.00060156,0.00225781,0.998015,-2.42264,1.23449,0.952366
1768149435446,0.00597265,0.00543164,1.00485,-2.3005,1.21922,0.845496
1768149435459,0.00426367,-0.000427738,1.00827,-2.36157,1.11235,0.937099
1768149435471,0.00060156,-0.000671878,1.00241,-2.24707,1.23449,0.914199
1768149435484,0.00060156,0.00128125,0.994353,-2.35394,0.990214,1.11267
1768149435497,-0.00110742,-0.00164844,0.992155,-2.44554,1.18105,0.876031
1768149435510,-0.00232813,0.00176953,1.00241,-2.26234,1.19632,0.944733
1768149435523,-0.00403711,0.000304684,0.99948,-2.36157,1.13525,1.0974
1768149435535,0.000357419,-0.00213672,1.00339,-2.2318,1.16579,0.929466
1768149435548,0.00182226,0.00396679,1.00363,-2.23944,1.30319,0.929466
1768149435561,0.00108984,0.00103711,0.998991,-2.13256,1.14289,0.860763
1768149435574,-0.00501367,0.00152539,1.00217,-2.23944,1.34899,0.937099
1768149435586,-0.00769922,0.000548825,0.999724,-2.59821,1.11998,0.952366
1768149435599,0.00328711,0.00347851,1.00363,-2.42264,1.18105,0.937099
1768149435612,-0.00281641,-0.00116016,1.00583,-2.38447,1.19632,0.967634
1768149435625,-0.00623438,-0.00189258,0.998991,-2.36921,1.16579,0.753893
1768149435637,0.00279883,0.00128125,1.01755,-2.36921,1.34899,0.967634
1768149435650,0.00255468,-0.000671878,1.01047,-2.48371,1.07418,0.898931
1768149435663,-0.00330469,0.00201367,1.0007,-2.43791,1.28792,0.944733
1768149435676,0.00133398,-0.000183597,1.01315,-2.33867,1.4406,0.975267
1768149435688,-0.00257227,0.00103711,1.00802,-2.48371,1.22685,0.990534
1768149435701,0.000113279,0.00543164,1.00143,-2.39974,1.26502,0.982901
1768149435714,0.0020664,-0.000671878,1.00754,-2.33867,1.18869,0.998168
1768149435727,-0.0057461,0.00445507,0.998503,-2.52951,1.24212,1.0745
1768149435740,0.00304297,0.00128125,1.00412,-2.39974,1.05892,0.967634
1768149435752,0.00572851,0.00250195,1.00046,-2.36921,1.21159,1.01344
1768149435765,0.00182226,-0.00457813,1.00387,-2.36921,1.08945,0.96
1768149435778,-0.00281641,-0.000916019,1.00265,-2.24707,1.25739,0.876031
1768149435791,-0.00135157,6.05434e-05,0.993376,-2.40737,1.06655,1.06687
1768149435803,-0.00208399,0.00323437,1.00192,-2.34631,1.19632,1.11267
1768149435816,0.00450781,0.00494336,1.00094,-2.29287,1.33373,0.860763
1768149435829,0.000113279,0.00836132,0.998259,-2.26997,1.15815,0.944733
1768149435842,-0.00257227,-0.00189258,1.00436,-2.41501,1.12762,0.937099
1768149435854,-0.000130862,0.00250195,1.00094,-2.35394,1.38716,0.921832
1768149435867,0.00499609,-0.00189258,0.998747,-2.41501,1.21922,0.876031
1768149435880,-0.00306055,6.05434e-05,0.997038,-2.33104,1.18105,0.952366
1768149435893,-0.00232813,0.0064082,1.00412,-2.50661,1.21159,1.0287
1768149435906,0.00890234,-0.000183597,1.00387,-2.2547,1.31082,1.03634
1768149435918,0.00279883,0.00128125,1.00827,-2.43027,1.17342,1.04397
1768149435931,0.000113279,-0.000671878,0.996794,-2.29287,1.16579,0.921832
1768149435944,-0.00476953,0.00591992,0.999724,-2.41501,1.08945,0.975267
1768149435957,-0.00110742,0.00225781,1.00046,-2.59821,1.17342,0.921832
1768149435969,-0.00110742,0.00421093,0.995817,-2.35394,1.23449,0.799695
1768149435982,0.00328711,0.00299023,1.00754,-2.50661,1.12762,0.868397
1768149435995,-0.000863284,0.00591992,1.0029,-2.3234,1.17342,0.776794
1768149436008,-0.00354883,-0.000671878,1.00485,-2.35394,1.24212,1.01344
1768149436020,-0.00159571,0.00274609,0.996794,-2.24707,1.18105,0.929466
1768149436033,-0.00403711,-0.00433399,1.00314,-2.17073,1.11235,0.891298
1768149436046,-0.000130862,-0.00116016,1.00436,-2.33104,1.27266,0.921832
1768149436059,0.000357419,0.00250195,0.994841,-2.3234,1.11235,0.876031
1768149436071,0.00060156,0.00250195,0.998015,-2.29287,1.15815,1.01344
1768149436084,-0.000863284,0.00421093,1.00119,-2.3234,1.18869,0.814962
1768149436097,-0.00159571,0.00225781,1.0029,-2.31577,1.12762,0.822595
1768149436110,0.0074375,-0.00653125,1.00583,-2.35394,1.20395,0.975267
1768149436122,0.00816992,-0.000916019,1.00046,-2.2089,1.29556,0.96
1768149436135,0.00060156,0.000304684,1.01242,-2.43027,1.08182,0.891298
1768149436148,0.00670508,0.00128125,0.998991,-2.22417,1.27266,1.08214
1768149436161,-0.000375003,0.00372265,1.00485,-2.39211,1.21159,1.13557
1768149436173,-0.000130862,0.00250195,0.996794,-2.33104,1.12762,0.868397
1768149436186,0.00572851,0.00152539,1.00168,-2.52188,1.41769,0.96
1768149436199,-0.00281641,-0.00164844,1.00656,-2.35394,1.26502,0.85313
1768149436212,0.000845701,0.000304684,1.00925,-2.26997,1.10472,0.845496
1768149436225,-0.00476953,-0.00286914,0.998991,-2.36921,1.17342,1.08214
1768149436237,0.00157812,0.00372265,1.00485,-2.2776,1.19632,1.0058
1768149436250,-0.00208399,-0.000916019,0.993864,-2.43027,1.18105,0.921832
1768149436263,0.00499609,0.00347851,1.00046,-2.2089,1.17342,0.784428
1768149436276,0.00133398,0.00323437,1.00949,-2.53714,1.13525,0.975267
1768149436288,-0.000130862,-0.00213672,0.999724,-2.34631,1.03602,0.906565
1768149436301,-0.000130862,0.00469922,0.994841,-2.35394,1.15052,1.03634
1768149436314,0.0020664,0.000304684,1.00925,-2.186,1.19632,0.845496
1768149436327,0.00328711,0.000548825,1.00192,-2.31577,1.21922,0.898931
1768149436340,0.00377539,0.000548825,1.00754,-2.3234,1.02075,0.792061
1768149436352,0.00133398,0.00225781,1.00339,-2.48371,1.17342,0.982901
1768149436365,0.00182226,-0.000671878,1.00143,-2.41501,1.17342,0.982901
1768149436378,0.0113437,-0.000427738,1.00192,-2.21653,1.33373,0.944733
1768149436391,-0.00135157,0.00347851,1.009,-2.14783,1.28029,0.96
1768149436403,0.00133398,-0.00384571,1.00412,-2.37684,1.05128,0.85313
1768149436416,-0.000375003,0.00274609,1.00217,-2.1631,0.990214,0.906565
1768149436429,-0.000619143,-0.000183597,1.0029,-2.35394,1.24212,0.845496
1768149436442,0.00108984,-0.000427738,1.00021,-2.44554,1.18105,0.990534
1768149436454,-0.00403711,-0.000916019,0.998747,-2.29287,1.21922,0.792061
1768149436467,0.00792578,0.000304684,1.00241,-2.36157,1.38716,1.01344
1768149436480,0.00353125,0.00543164,1.009,-2.40737,1.39479,1.01344
1768149436493,0.00328711,-0.0014043,0.998259,-2.39211,1.13525,1.0974
1768149436505,-0.00159571,0.00225781,1.00632,-2.37684,1.22685,0.868397
1768149436518,0.00353125,6.05434e-05,1.00387,-2.26234,1.23449,1.03634
1768149436531,0.000357419,0.00299023,1.01315,-2.29287,1.20395,0.952366
1768149436544,-0.000863284,0.00176953,1.00143,-2.37684,1.05892,0.891298
1768149436556,-0.00110742,0.000792965,1.00705,-2.2089,1.02838,0.906565
1768149436569,-0.00623438,0.000792965,0.998259,-2.2089,1.02075,1.01344
1768149436582,-0.00843164,0.00225781,0.995329,-2.37684,1.16579,0.975267
1768149436595,0.00450781,-0.00164844,1.00046,-2.28524,1.37953,0.998168
1768149436608,-0.00281641,0.00421093,1.00217,-2.2776,1.18869,0.898931
1768149436620,0.00133398,-0.00482227,1.00192,-2.43791,1.26502,1.0516
1768149436633,-0.00159571,-0.00384571,1.00778,-2.38447,1.24212,0.85313
1768149436646,0.00279883,0.000548825,1.00363,-2.43027,1.25739,0.845496
1768149436659,0.00328711,0.00347851,1.0068,-2.35394,0.974947,0.990534
1768149436671,-0.000375003,-0.00311328,1.01242,-2.53714,1.15815,0.85313
1768149436684,-0.00525782,0.00469922,1.00729,-2.19363,1.07418,0.929466
1768149436697,-0.00306055,-0.00189258,0.99362,-2.58295,1.31082,0.868397
1768149436710,0.00401953,-0.000427738,0.998015,-2.33104,1.15052,0.906565
1768149436722,0.0020664,-0.00116016,1.00534,-2.43027,1.17342,0.96
1768149436735,-0.00110742,-0.000671878,1.00119,-2.186,1.16579,0.982901
1768149436748,-0.000375003,-0.00116016,1.00973,-2.46081,1.21159,0.906565
1768149436761,0.00597265,0.0105586,1.00632,-2.52951,1.26502,0.883664
1768149436773,-0.00183985,0.00689648,1.00241,-2.0715,1.22685,0.937099
1768149436786,-0.000619143,0.000792965,1.00485,-2.59058,1.28792,0.982901
1768149436799,-0.00208399,-0.00360157,1.00509,-2.0944,1.22685,0.982901
1768149436812,0.00328711,-0.00384571,1.00925,-2.36921,1.30319,0.929466
1768149436824,0.00182226,-0.00213672,1.00509,-2.34631,1.11235,0.822595
1768149436837,-0.000130862,0.000548825,1.00436,-2.44554,1.18869,0.921832
1768149436850,0.000845701,0.00421093,0.997771,-2.38447,1.09708,0.883664
1768149436863,0.00255468,-0.00384571,1.0112,-2.33104,1.08945,0.914199
1768149436876,0.00133398,0.00250195,1.00851,-2.3005,1.37189,1.15084
1768149436888,-0.000863284,0.00396679,0.998991,-2.0944,1.11235,1.05924
1768149436901,0.00328711,0.00152539,1.00387,-2.34631,1.37189,0.929466
1768149436914,0.00182226,-0.00164844,1.00265,-2.33867,1.11998,0.914199
1768149436927,0.000113279,0.00616406,1.00607,-2.52188,1.34136,0.906565
1768149436939,0.00426367,0.000304684,1.0068,-2.33867,1.14289,0.982901
1768149436952,-0.000130862,0.00347851,0.992644,-2.38447,1.21922,1.0974
1768149436965,0.00328711,0.00469922,1.0007,-2.46081,1.27266,0.914199
1768149436978,0.00133398,0.0051875,0.99948,-2.37684,1.16579,0.921832
1768149436991,0.00353125,-0.0014043,0.998503,-2.17073,1.24212,1.03634
1768149437003,-0.00306055,-0.000427738,1.00778,-2.22417,1.28029,0.937099
1768149437016,-0.00452539,0.0064082,1.01071,-2.26234,1.26502,0.982901
1768149437029,-0.00183985,0.000548825,1.00925,-2.15547,1.15052,0.990534
1768149437042,0.00133398,-0.000427738,1.00217,-2.47608,1.21922,0.891298
1768149437054,0.00157812,-0.00213672,0.99948,-2.3005,1.17342,0.982901
1768149437067,-0.00257227,0.00396679,1.00827,-2.2776,1.27266,1.05924
1768149437080,-0.000375003,0.00225781,0.994597,-2.42264,1.21159,0.998168
1768149437093,-0.000130862,-0.00164844,1.00558,-2.33104,1.18869,0.921832
1768149437105,-0.00281641,0.00909375,1.009,-2.30814,1.14289,0.876031
1768149437118,0.000357419,0.00176953,1.00558,-2.24707,1.18105,0.975267
1768149437131,-0.00232813,0.00494336,1.00534,-2.44554,1.27266,0.975267
1768149437144,-0.00281641,-0.000427738,0.995817,-2.3234,1.15815,0.914199
1768149437156,-0.00525782,0.00225781,1.00607,-2.26234,1.28029,0.998168
1768149437169,-0.00232813,0.00323437,1.00094,-2.28524,1.02838,0.822595
1768149437182,0.00133398,-0.00189258,1.00265,-2.37684,1.24212,0.990534
1768149437195,-0.000619143,0.00323437,1.00851,-2.36921,1.21922,0.944733
1768149437208,-0.00623438,-0.00116016,1.00265,-2.23944,1.18105,0.96
1768149437220,0.000113279,-0.00433399,0.997282,-2.30814,1.28029,0.845496
1768149437233,0.00255468,0.000792965,1.00412,-2.2776,1.27266,1.06687
1768149437246,0.00401953,-0.00335743,0.994841,-2.46081,1.24212,0.921832
1768149437259,0.000113279,0.00103711,1.00363,-2.22417,1.24212,0.807328
1768149437271,-0.00183985,-0.000671878,1.00827,-2.46081,1.16579,0.998168
1768149437284,0.00108984,-0.000916019,0.994353,-2.3005,1.26502,0.914199
1768149437297,-0.00330469,0.00225781,1.00217,-2.3005,1.20395,0.967634
1768149437310,0.00401953,0.00421093,1.00363,-2.2776,1.08945,0.998168
1768149437322,-0.000863284,-0.002625,1.00583,-2.41501,1.22685,0.921832
1768149437335,0.00450781,0.00176953,0.998991,-2.36157,1.28029,1.0058
1768149437348,-0.00476953,0.00274609,1.00094,-2.3005,1.05128,0.906565
1768149437361,0.000113279,-0.00189258,1.00143,-2.46081,1.25739,0.799695
1768149437373,-0.000863284,0.00176953,1.00998,-2.2089,1.08182,0.998168
1768149437386,-0.00183985,-0.00286914,1.00973,-2.186,1.08182,1.0287
1768149437399,0.0020664,0.000548825,0.998991,-2.21653,1.27266,0.868397
1768149437412,0.00108984,0.00225781,1.00021,-2.3234,1.34899,1.0058
1768149437424,0.000845701,0.000304684,1.00217,-2.30814,1.15052,0.975267
1768149437437,-0.00794336,-0.0014043,0.998503,-2.2318,1.19632,0.906565
1768149437450,0.00133398,0.00469922,1.00827,-2.39211,1.41769,1.10504
1768149437463,0.00060156,0.00494336,0.994108,-2.2318,1.33373,0.85313
1768149437475,0.00182226,-0.00189258,1.00168,-2.31577,1.31082,1.05924
1768149437488,-0.00110742,6.05434e-05,0.99948,-2.22417,1.17342,0.944733
1768149437501,0.00353125,-0.00116016,1.01144,-2.3005,1.22685,1.01344
1768149437514,-0.00452539,-0.00579883,0.995573,-2.41501,1.04365,0.807328
1768149437526,0.00353125,0.00274609,0.993376,-2.37684,1.13525,0.921832
1768149437539,-0.00452539,0.00225781,0.998991,-2.42264,1.08182,1.03634
1768149437552,0.00133398,-0.000671878,0.996062,-2.29287,1.14289,0.868397
1768149437565,-0.00550196,-0.00579883,1.00192,-2.39211,1.14289,0.860763
1768149437577,0.00133398,0.00250195,1.00778,-2.48371,1.10472,0.906565
1768149437590,-0.000130862,-0.00189258,1.0029,-2.3234,1.13525,1.05924
1768149437603,-0.00110742,-0.00335743,1.00143,-2.37684,1.12762,0.982901
1768149437616,-0.00257227,-0.00164844,1.00509,-2.38447,1.28029,0.952366
1768149437629,-0.00135157,-0.00213672,1.00314,-2.20127,1.18869,1.04397
1768149437642,-0.00159571,-0.000183597,1.00192,-2.36921,1.28029,1.0058
1768149437654,0.00353125,0.00103711,0.997526,-2.36921,0.98258,1.01344
1768149437667,0.00401953,-0.00189258,1.00436,-2.43791,1.34899,0.906565
1768149437680,-0.00208399,-0.000916019,1.01071,-2.43791,1.40243,0.876031
1768149437693,0.00182226,0.00347851,0.999968,-2.34631,1.05128,0.891298
1768149437705,0.00133398,-0.00286914,1.00217,-2.43027,1.16579,1.01344
1768149437718,0.00182226,-0.00213672,1.00632,-2.33867,1.02075,0.929466
1768149437731,0.00231054,-0.000183597,0.997771,-2.36921,1.22685,0.876031
1768149437744,-0.00354883,0.00421093,1.00241,-2.28524,1.30319,1.03634
1768149437757,-0.00208399,0.00225781,1.00119,-2.46081,1.26502,0.799695
1768149437769,-0.00281641,-0.00335743,1.0068,-2.33104,1.10472,0.937099
1768149437782,-0.00501367,0.00250195,0.998259,-2.20127,0.944412,0.975267
1768149437795,0.000357419,-0.0014043,1.0029,-2.39974,1.28792,1.11267
1768149437808,0.00060156,-0.00189258,0.99655,-2.26997,1.25739,0.898931
1768149437820,-0.00354883,0.00372265,1.00021,-2.53714,1.14289,0.921832
1768149437833,-0.00208399,0.00128125,1.00314,-2.31577,1.32609,0.982901
1768149437846,0.00401953,0.00616406,1.0112,-2.2547,1.29556,0.944733
1768149437859,-0.00794336,0.00811718,1.0029,-2.186,1.11235,0.96
1768149437872,0.00108984,-0.000183597,1.00168,-2.38447,1.32609,0.96
1768149437884,-0.00110742,0.00250195,1.00802,-2.36157,1.22685,1.01344
1768149437897,0.00060156,-0.0014043,1.00265,-2.3234,1.21922,1.03634
1768149437910,0.00108984,0.00225781,1.01242,-2.44554,1.20395,1.05924
1768149437923,0.00133398,0.00836132,0.997282,-2.34631,1.15815,0.998168
1768149437936,0.000357419,0.00372265,1.00339,-2.40737,1.12762,0.830229
1768149437949,-0.00379297,-0.0014043,1.00339,-2.3234,1.27266,0.784428
1768149437961,-0.00599024,0.000792965,1.00509,-2.3234,1.26502,0.906565
1768149437974,0.000113279,0.000792965,0.998259,-2.34631,1.22685,0.944733
1768149437987,0.00279883,-0.00726368,0.994353,-2.36921,1.15052,0.860763
1768149438000,-0.00599024,-0.00116016,1.00925,-2.29287,1.15815,1.03634
1768149438012,0.00597265,0.00225781,1.01144,-2.40737,1.30319,0.883664
1768149438025,0.00060156,0.00323437,1.00192,-2.49134,1.33373,0.921832
1768149438038,-0.000130862,-0.000183597,1.00436,-2.52188,1.18869,0.906565
1768149438051,0.00255468,0.00201367,1.01242,-2.24707,1.15815,0.730992
1768149438063,-0.000863284,0.00323437,1.00509,-2.23944,1.18105,1.01344
1768149438076,0.000357419,0.00128125,1.00046,-2.46844,1.17342,0.975267
1768149438089,0.00108984,0.00225781,1.01071,-2.39974,1.13525,0.952366
1768149438102,0.00353125,0.00494336,1.00461,-2.36921,1.34136,1.0058
1768149438115,-0.00110742,0.00103711,1.00802,-2.50661,1.07418,0.937099
1768149438127,0.00255468,0.000304684,0.997282,-2.41501,1.13525,1.0974
1768149438140,-0.000863284,6.05434e-05,1.00021,-2.3005,1.17342,0.906565
1768149438153,0.000845701,-0.00189258,1.0029,-2.46844,1.19632,0.990534
1768149438166,-0.00208399,-0.000916019,0.999968,-2.31577,1.27266,0.891298
1768149438178,-0.00135157,-0.00164844,1.00607,-2.39974,1.05892,0.906565
1768149438191,0.00255468,0.00152539,0.994353,-2.34631,1.21922,0.883664
1768149438204,-0.00476953,-0.00116016,1.00461,-2.26234,1.19632,0.891298
1768149438217,-0.00159571,-0.00116016,1.00094,-2.41501,1.02075,1.08977
1768149438229,0.00426367,-0.000183597,1.00265,-2.39974,1.24212,0.822595
1768149438242,0.00182226,0.000548825,1.0112,-2.26997,1.10472,0.883664
1768149438255,0.00548437,0.00299023,0.995817,-2.20127,1.00548,0.837863
1768149438268,0.00060156,0.0076289,0.999968,-2.29287,1.13525,0.967634
1768149438280,-0.00452539,-0.00238086,1.00583,-2.37684,1.14289,0.845496
1768149438293,0.000113279,0.0051875,1.00876,-2.33867,1.10472,0.868397
1768149438306,-0.00257227,0.00128125,1.00168,-2.42264,1.31082,0.982901
1768149438319,0.00548437,0.00616406,1.00387,-2.2089,1.15052,0.906565
1768149438332,0.00182226,-0.00116016,0.992644,-2.41501,1.19632,0.898931
1768149438344,-0.00452539,-0.000427738,0.995817,-2.40737,1.04365,0.967634
1768149438357,-0.00330469,0.00176953,1.00778,-2.44554,1.17342,0.937099
1768149438370,0.00133398,0.0076289,1.0007,-2.19363,1.02075,0.929466
1768149438383,0.00157812,0.00250195,0.997771,-2.45318,1.09708,0.998168
1768149438395,-0.000863284,0.00176953,0.994597,-2.29287,1.17342,0.814962
1768149438408,-0.000130862,-0.00433399,0.998747,-2.43791,1.17342,1.0745
1768149438421,0.00328711,0.00250195,1.00436,-2.42264,1.14289,0.929466
1768149438434,0.00255468,-0.00482227,0.98947,-2.37684,1.24212,0.898931
1768149438446,-0.000130862,0.00128125,0.997526,-2.26997,1.15815,0.96
1768149438459,0.00255468,-0.00116016,1.00705,-2.26234,1.06655,0.952366
1768149438472,-0.00306055,0.0076289,1.00119,-2.46844,1.34136,1.05924
1768149438485,-0.000863284,0.00787304,1.00192,-2.0944,0.98258,0.990534
1768149438497,-0.00257227,0.00201367,1.00802,-2.42264,1.27266,0.998168
1768149438510,-0.00135157,-0.00116016,0.997771,-2.38447,1.32609,0.814962
1768149438523,0.00328711,0.00128125,1.00509,-2.37684,1.10472,0.807328
1768149438536,-0.000130862,0.00152539,1.00949,-2.40737,1.19632,0.967634
1768149438548,-0.000619143,0.00250195,1.00656,-2.24707,1.07418,0.85313
1768149438561,-0.00232813,-0.00750782,0.99948,-2.44554,1.29556,0.921832
1768149438574,-0.0057461,0.000304684,1.00802,-2.23944,1.04365,1.0058
1768149438587,-0.000619143,0.00299023,1.00168,-2.43027,1.21159,0.937099
1768149438600,0.00328711,-0.000183597,1.00265,-2.36157,1.23449,1.01344
1768149438612,-0.000375003,0.00494336,1.00339,-2.34631,1.39479,0.876031
1768149438625,0.000113279,-0.00457813,0.995329,-2.34631,1.24212,1.01344
1768149438638,-0.00232813,0.00299023,1.0068,-2.39974,1.10472,0.845496
1768149438651,0.00060156,6.05434e-05,1.0029,-2.40737,1.05128,0.914199
1768149438663,-0.00452539,0.00347851,0.99948,-2.39211,1.33373,0.929466
1768149438676,-0.000863284,0.00128125,1.00094,-2.42264,1.12762,0.906565
1768149438689,-0.00183985,0.00176953,1.00607,-2.29287,1.16579,0.860763
1768149438702,-0.00257227,-0.000671878,1.00802,-2.39211,1.22685,0.952366
1768149438714,0.00279883,-0.00311328,0.994108,-2.39211,1.17342,0.937099
1768149438727,-0.00379297,-0.00531055,1.00119,-2.37684,1.20395,0.952366
1768149438740,-0.00452539,-0.00335743,0.998991,-2.28524,1.08182,1.0287
1768149438753,0.000113279,0.00591992,0.997526,-2.46081,1.28029,1.13557
1768149438765,0.00108984,0.000792965,1.00143,-2.22417,1.13525,0.914199
1768149438778,0.00353125,0.000548825,1.00021,-2.26997,1.26502,0.906565
1768149438791,0.000845701,0.00201367,1.00363,-2.3005,1.24976,0.898931
1768149438804,-0.00330469,-0.00311328,1.00192,-2.49134,1.08945,0.944733
1768149438816,-0.00135157,-0.00238086,0.998747,-2.38447,1.31846,0.807328
1768149438829,-0.00159571,-0.00189258,0.999724,-2.2318,1.21159,0.944733
1768149438842,-0.00110742,-0.000427738,0.999724,-2.44554,0.929145,0.891298
1768149438855,0.00426367,0.00103711,1.00973,-2.30814,1.16579,0.975267
1768149438868,0.000845701,0.00299023,1.00143,-2.33867,1.24976,0.929466
1768149438881,-0.00135157,-0.00164844,1.00143,-2.35394,1.24976,0.906565
1768149438894,0.00426367,-0.0014043,1.00094,-2.41501,1.21159,0.990534
1768149438907,0.00353125,0.00347851,1.00217,-2.39974,1.16579,0.982901
1768149438919,0.000113279,0.00250195,1.00778,-2.39974,1.09708,0.952366
1768149438932,0.00060156,0.00665234,1.00558,-2.44554,1.28029,0.96
1768149438945,-0.00257227,0.00103711,1.00998,-2.46081,1.19632,1.04397
1768149438958,0.000113279,0.00299023,0.989714,-2.42264,1.34136,0.868397
1768149438970,-0.000130862,0.00152539,1.00558,-2.33104,1.34136,0.921832
1768149438983,-0.00257227,0.000792965,1.00119,-2.36921,1.32609,1.0745
1768149438996,-0.00330469,0.00372265,1.00387,-2.33867,1.08182,0.975267
1768149439009,-0.00232813,-0.00189258,1.00339,-2.2547,1.34136,0.883664
1768149439022,-0.00306055,0.00176953,1.00265,-2.29287,1.15815,0.898931
1768149439034,-0.00159571,0.00152539,0.995573,-2.39974,1.17342,0.914199
1768149439047,0.00499609,0.00225781,0.997771,-2.28524,1.21159,0.868397
1768149439060,0.00401953,0.00543164,0.997282,-2.31577,1.05892,1.08214
1768149439073,-0.000130862,0.00543164,1.00241,-2.60585,1.19632,1.0745
1768149439085,0.00890234,-0.000671878,1.00632,-2.28524,1.23449,0.898931
1768149439098,0.00450781,-0.00213672,1.00583,-2.48371,1.28029,0.929466
1768149439111,0.00475195,0.00176953,0.997526,-2.3234,1.18869,0.921832
1768149439124,-0.00452539,0.00103711,1.00412,-2.37684,1.18869,0.914199
1768149439137,0.00450781,-0.00213672,1.00802,-2.2547,1.09708,1.01344
1768149439149,-0.00379297,0.000792965,1.00387,-2.38447,1.19632,1.03634
1768149439162,0.0020664,0.00567578,0.998991,-2.2547,1.27266,0.967634
1768149439175,-0.00379297,0.00347851,1.00119,-2.28524,1.30319,0.929466
1768149439188,0.000845701,0.00201367,1.00021,-2.46844,1.20395,1.0058
1768149439200,-0.00452539,0.00128125,1.01022,-2.17073,1.02838,0.784428
1768149439213,0.00475195,0.000792965,0.997526,-2.28524,0.98258,0.898931
1768149439226,-0.00281641,-0.00408985,1.00363,-2.39211,1.13525,0.937099
1768149439239,-0.00623438,0.00274609,1.00217,-2.46844,1.17342,0.967634
1768149439252,-0.00135157,-0.000427738,0.998991,-2.36921,1.10472,0.952366
1768149439264,0.00621679,-0.00506641,0.997038,-2.30814,1.25739,1.01344
1768149439277,0.00231054,-0.00360157,0.998259,-2.29287,1.22685,0.830229
1768149439290,-0.00623438,-0.000671878,0.997282,-2.30814,1.22685,0.937099
1768149439303,-0.000375003,-0.000183597,0.997282,-2.3005,1.29556,1.0516
1768149439315,0.00328711,0.000548825,1.00436,-2.42264,1.31082,1.02107
1768149439328,0.000357419,0.000304684,1.00754,-2.26997,1.24976,0.830229
1768149439341,0.00524023,0.00811718,1.01095,-2.34631,1.20395,1.06687
1768149439354,0.000845701,0.00591992,0.997038,-2.26997,1.20395,0.952366
1768149439366,-0.00110742,-0.000671878,1.0029,-2.29287,1.15052,1.0287
1768149439379,0.00353125,-0.00286914,1.00925,-2.44554,1.15052,0.975267
1768149439392,-0.000863284,0.00274609,1.00021,-2.2547,1.20395,0.952366
1768149439405,0.00157812,0.00299023,1.00973,-2.2776,1.17342,0.982901
1768149439417,-0.00257227,-0.00116016,0.994841,-2.33104,1.18869,0.860763
1768149439430,0.00353125,-0.00311328,1.0068,-2.31577,1.21159,1.05924
1768149439443,-0.00452539,0.000792965,1.00363,-2.1631,1.21922,0.845496
1768149439456,-0.000130862,-0.00164844,1.00241,-2.48371,1.18869,0.876031
1768149439469,-0.00232813,0.00103711,1.00632,-2.41501,1.25739,0.990534
1768149439481,0.00133398,-0.000671878,1.00509,-2.22417,1.03602,0.830229
1768149439494,0.00524023,0.00225781,0.988737,-2.34631,1.10472,1.08214
1768149439507,-0.00354883,-0.00286914,1.009,-2.36921,1.07418,0.830229
1768149439520,-0.00452539,0.00201367,1.00436,-2.2089,1.05128,0.860763
1768149439532,-0.00208399,0.00152539,0.999724,-2.36921,1.41006,0.914199
1768149439545,-0.00159571,0.0076289,1.009,-2.37684,0.997847,0.944733
1768149439558,-0.00501367,0.00714062,0.995085,-2.33104,1.23449,0.891298
1768149439571,0.00279883,-0.00189258,0.999968,-2.21653,1.13525,0.822595
1768149439584,-0.00159571,0.000792965,1.01144,-2.42264,1.20395,1.03634
1768149439596,0.00255468,-0.000916019,1.00973,-2.37684,1.21159,1.01344
1768149439609,-0.00623438,0.00152539,0.998747,-2.33104,1.33373,0.990534
1768149439622,-0.00525782,-0.000183597,0.99948,-2.35394,1.34136,0.952366
1768149439635,-0.000130862,0.00372265,0.99655,-2.36921,1.15815,0.975267
1768149439647,0.00231054,0.0051875,0.996062,-2.36157,1.19632,0.967634
1768149439660,-0.00403711,0.00225781,1.00314,-2.33104,1.18105,1.15084
1768149439673,0.00255468,6.05434e-05,1.00314,-2.52188,1.17342,1.02107
1768149439686,-0.000130862,-0.00311328,0.999724,-2.2547,1.04365,0.753893
1768149439699,-0.00183985,-0.00335743,0.991911,-2.37684,1.11235,0.814962
1768149439711,-0.00330469,-0.00213672,1.00143,-2.2318,1.10472,1.0287
1768149439724,-0.00208399,0.00811718,0.998503,-2.39974,1.16579,0.982901
1768149439737,0.00426367,0.00396679,0.997771,-2.36921,1.13525,0.998168
1768149439750,0.00401953,-0.00213672,0.99655,-2.45318,1.16579,0.85313
1768149439762,0.00182226,0.00103711,1.00339,-2.50661,1.04365,1.0058
1768149439775,0.000357419,0.00250195,0.991911,-2.43027,1.13525,0.898931
1768149439788,-0.000375003,0.00469922,1.00436,-2.37684,1.11235,0.837863
1768149439801,-0.000863284,0.00250195,1.00168,-2.37684,1.20395,0.990534
1768149439813,-0.000375003,0.00396679,1.00339,-2.30814,1.22685,0.898931
1768149439826,-0.00183985,-0.00213672,0.99948,-2.42264,1.26502,0.982901
1768149439839,-0.00159571,0.00299023,1.00265,-2.29287,1.08945,1.0516
1768149439852,-0.00354883,0.00787304,1.00192,-2.2547,1.33373,0.898931
1768149439865,-0.00623438,-0.00433399,1.00461,-2.53714,1.28792,0.975267
1768149439877,-0.00257227,0.00616406,0.999968,-2.36157,1.15815,1.0287
1768149439890,0.00060156,0.0051875,1.0007,-2.26997,1.37953,0.929466
1768149439903,-0.00257227,0.00323437,1.00583,-2.33104,1.22685,1.0745
1768149439916,-0.000375003,-0.000427738,1.00778,-2.48371,1.19632,1.04397
1768149439929,-0.00208399,-0.00360157,0.998991,-2.3234,1.22685,0.929466
1768149439941,0.00353125,-0.000916019,0.996794,-2.43027,1.24976,0.85313
1768149439954,0.000845701,-0.00213672,1.00265,-2.48371,1.30319,0.929466
1768149439967,0.00377539,-0.00360157,1.00827,-2.33867,1.20395,0.898931
1768149439980,-0.000863284,-0.00164844,1.0068,-2.35394,1.36426,0.921832
1768149439992,-0.00354883,-0.000427738,1.00802,-2.39974,1.15815,1.0058
1768149440005,0.00621679,0.000304684,0.997282,-2.36921,1.11998,0.891298
1768149440018,0.00304297,0.00591992,1.00387,-2.39211,1.15815,0.883664
1768149440031,-0.000863284,0.00347851,0.999968,-2.3005,1.24976,0.937099
1768149440044,0.00401953,0.00225781,0.999968,-2.1631,1.11998,0.96
1768149440056,-0.00599024,0.00396679,0.996794,-2.36157,1.21159,1.08977
1768149440069,0.00353125,-0.00213672,0.999968,-2.36157,1.41769,0.96
1768149440082,0.00133398,0.000304684,1.00656,-2.23944,1.25739,0.74626
1768149440095,0.00499609,0.00567578,1.00339,-2.66692,1.24976,1.01344
1768149440107,0.000113279,-0.00384571,0.998747,-2.23944,1.30319,0.883664
1768149440120,-0.000375003,0.00567578,1.00509,-2.33104,1.22685,1.05924
1768149440133,-0.00135157,6.05434e-05,0.998991,-2.49134,1.09708,1.0516
1768149440146,0.00377539,0.00469922,1.00973,-2.28524,1.21159,0.837863
1768149440159,0.00475195,-0.00360157,0.997526,-2.33104,1.33373,1.05924
1768149440171,0.00499609,-0.00164844,1.00094,-2.2547,1.13525,0.937099
1768149440184,-0.00135157,0.000548825,0.995573,-2.38447,1.34136,0.982901
1768149440197,-0.00452539,0.00176953,1.00412,-2.24707,1.34136,0.952366
1768149440210,-0.00135157,0.00616406,1.00265,-2.36921,1.24976,0.876031
1768149440222,0.00426367,0.000548825,1.00632,-2.26234,1.14289,0.982901
1768149440235,-0.000863284,-0.00238086,1.00656,-2.39211,1.18869,1.06687
1768149440248,-0.00208399,-0.000671878,1.00729,-2.36921,1.24976,0.792061
1768149440261,0.000113279,0.0076289,1.00021,-2.43027,1.32609,0.982901
1768149440273,-0.00183985,-0.0079961,0.998747,-2.28524,1.28029,0.868397
1768149440286,0.00255468,-0.000183597,1.00314,-2.3234,1.19632,0.990534
1768149440299,-0.00110742,0.00201367,1.00241,-2.37684,1.02075,0.937099
1768149440312,0.00304297,0.00152539,0.997771,-2.39974,1.04365,0.898931
1768149440325,0.00475195,0.00372265,0.993132,-2.30814,1.21159,0.96
1768149440337,-0.000619143,0.0051875,1.00339,-2.41501,1.10472,1.02107
1768149440350,0.00157812,0.000792965,1.009,-2.30814,1.18869,0.998168
1768149440363,-0.00257227,-0.00408985,1.00534,-2.20127,1.22685,0.982901
1768149440376,0.00279883,0.00201367,0.997038,-2.33867,1.26502,1.02107
1768149440388,-0.00159571,-0.000916019,1.0029,-2.38447,1.20395,0.937099
1768149440401,-0.00379297,0.00103711,0.994108,-2.10203,1.11235,0.937099
1768149440414,0.000845701,0.00469922,0.998015,-2.35394,1.15815,0.990534
1768149440427,-0.00476953,-0.00335743,0.991179,-2.26234,1.29556,1.02107
1768149440439,-0.00550196,0.00274609,1.00217,-2.36157,1.20395,1.02107
1768149440452,0.00304297,-0.00164844,0.998015,-2.35394,1.16579,1.01344
1768149440465,-0.00110742,-0.002625,1.00241,-2.43791,1.47876,0.921832
1768149440478,0.00255468,0.000792965,0.997038,-2.33867,1.18869,0.891298
1768149440490,0.00108984,0.00250195,0.990935,-2.2776,1.29556,0.822595
1768149440503,0.00816992,0.00616406,0.995329,-2.45318,1.15815,0.883664
1768149440516,0.00157812,-0.00116016,0.998991,-2.37684,1.26502,0.868397
1768149440529,-0.00354883,0.000792965,1.00021,-2.26234,1.20395,0.898931
1768149440541,0.000845701,0.0064082,0.995329,-2.40737,1.28029,0.952366
1768149440554,0.00499609,-0.00164844,1.00265,-2.36921,1.42533,0.845496
1768149440567,-0.00330469,-0.00213672,0.995329,-2.45318,1.33373,0.898931
1768149440580,0.00108984,0.00396679,0.997282,-2.46844,1.24212,0.944733
1768149440592,-0.00257227,0.00274609,0.999968,-2.26997,1.11998,0.998168
1768149440605,0.000845701,-0.00213672,1.00217,-2.52951,1.18869,1.0058
1768149440618,0.00060156,0.00201367,0.998747,-2.3234,1.14289,0.952366
1768149440631,0.00231054,0.00372265,1.00412,-2.33104,1.26502,0.837863
1768149440643,-0.000130862,-0.00604297,1.00143,-2.35394,1.33373,1.0058
1768149440656,0.00231054,-0.00897266,0.999968,-2.53714,1.28029,1.04397
1768149440669,0.00060156,-0.002625,0.998015,-2.29287,1.28792,0.860763
1768149440682,-0.00354883,0.00176953,0.997771,-2.39211,1.15815,0.982901
1768149440695,-0.00183985,0.00421093,1.00558,-2.31577,1.18869,0.814962
1768149440707,0.00401953,0.00176953,1.00656,-2.37684,1.16579,0.96
1768149440720,-0.000863284,0.00250195,1.00632,-2.34631,1.34899,0.822595
1768149440733,-0.00379297,0.00176953,1.00265,-2.42264,1.32609,0.807328
1768149440746,-0.00306055,-0.000427738,1.01242,-2.43791,1.20395,1.05924
1768149440759,-0.00183985,0.00176953,0.997526,-2.29287,1.30319,0.76916
1768149440771,0.00353125,-0.000427738,1.00729,-2.40737,1.26502,0.914199
1768149440784,-0.00281641,0.00201367,0.993864,-2.36157,1.26502,0.929466
1768149440797,-0.00623438,-0.00457813,0.994841,-2.35394,1.10472,0.876031
1768149440810,-0.0081875,0.00201367,0.99655,-2.37684,1.15815,1.08977
1768149440822,-0.00135157,0.00176953,0.999968,-2.47608,1.12762,0.883664
1768149440835,-0.00183985,-0.0014043,1.0068,-2.55241,1.20395,0.876031
1768149440848,0.000113279,0.00201367,1.00046,-2.43027,1.20395,0.830229
1768149440861,-0.00330469,0.00689648,1.00046,-2.39974,1.37953,1.02107
1768149440874,-0.00306055,-0.000183597,1.00436,-2.2547,1.18869,1.01344
1768149440886,0.00475195,-0.000671878,1.00461,-2.33867,1.19632,0.96
1768149440899,0.00157812,0.00616406,1.00119,-2.46844,1.18869,0.944733
1768149440912,0.00108984,0.00176953,0.999235,-2.54478,1.35663,0.883664
1768149440925,0.00157812,0.00103711,1.00046,-2.19363,1.29556,1.0058
1768149440937,0.00548437,0.00347851,1.00778,-2.24707,1.14289,0.990534
1768149440950,-0.00330469,0.00543164,1.00094,-2.33867,1.14289,0.944733
1768149440963,0.00182226,-0.00286914,1.00387,-2.20127,1.24212,0.845496
1768149440976,0.00279883,-0.00164844,1.00827,-2.40737,1.32609,0.876031
1768149440988,-0.00257227,-0.00213672,1.00094,-2.42264,1.10472,0.967634
1768149441001,-0.00110742,-0.00238086,0.996306,-2.41501,1.02838,0.96
1768149441014,-0.00306055,0.00445507,0.998015,-2.33867,1.21159,0.876031
1768149441027,-0.000130862,0.00250195,1.00339,-2.3234,1.17342,0.807328
1768149441040,0.00426367,-0.00335743,1.01242,-2.30814,1.13525,0.85313
1768149441052,0.00353125,-0.000427738,1.00949,-2.59821,1.18869,0.982901
1768149441065,0.00279883,0.00909375,0.996062,-2.37684,1.26502,0.96
1768149441078,0.00108984,0.00958203,0.998747,-2.33104,0.990214,0.96
1768149441091,-0.00159571,-0.000183597,1.00339,-2.41501,1.43296,1.02107
1768149441103,0.000357419,0.00128125,0.998747,-2.186,1.20395,0.761527
1768149441116,-0.000863284,-0.0014043,0.998747,-2.42264,0.997847,0.898931
1768149441129,0.000845701,-0.00311328,0.99948,-2.36921,1.18869,1.0287
1768149441142,-0.0106289,-0.000671878,0.99948,-2.2776,1.12762,0.776794
1768149441155,-0.00159571,0.00323437,0.998015,-2.35394,1.31846,1.13557
1768149441167,0.00279883,-0.0014043,1.00192,-2.52188,1.06655,1.0745
1768149441180,0.000113279,-0.00213672,1.00607,-2.12493,1.33373,0.982901
1768149441193,-0.00257227,6.05434e-05,0.995085,-2.23944,1.04365,0.814962
1768149441206,0.00133398,-0.00189258,1.00217,-2.186,1.32609,0.937099
1768149441218,-0.00183985,0.00445507,1.00217,-2.35394,1.25739,0.906565
1768149441231,0.00548437,-0.00116016,1.01291,-2.34631,1.34899,0.799695
1768149441244,0.00328711,0.00225781,1.00265,-2.39974,1.34899,0.944733
1768149441257,-0.00599024,-0.000427738,1.00461,-2.46081,1.07418,1.02107
1768149441269,-0.000375003,0.00103711,0.998015,-2.22417,1.11235,0.906565
1768149441282,0.000357419,-0.00335743,1.00387,-2.29287,1.28029,0.937099
1768149441295,-0.00135157,0.0051875,0.997282,-2.186,1.06655,0.860763
1768149441308,-0.00354883,0.00445507,0.999235,-2.45318,1.28029,0.914199
1768149441321,-0.00135157,-0.00482227,0.986784,-2.43791,1.12762,0.929466
1768149441333,0.00060156,-0.002625,0.997282,-2.2089,1.28792,0.937099
1768149441346,0.00133398,0.00128125,0.992155,-2.41501,1.05892,1.0058
1768149441359,0.000845701,-0.000183597,1.00363,-2.30814,1.13525,0.96
1768149441372,0.000113279,6.05434e-05,1.00046,-2.31577,1.21922,1.11267
1768149441384,0.00401953,0.00347851,0.996794,-2.3234,1.11998,0.921832
1768149441397,-0.000863284,0.000792965,0.99362,-2.19363,1.18105,0.921832
1768149441410,-0.00183985,0.000548825,1.00119,-2.43791,0.997847,0.807328
1768149441423,0.000845701,0.00128125,0.998747,-2.2776,1.19632,0.944733
1768149441436,0.000113279,0.00787304,1.00339,-2.35394,1.24212,0.868397
1768149441448,-0.00183985,-0.000671878,1.00119,-2.51424,1.16579,1.08214
1768149441461,-0.00208399,0.00250195,1.00314,-2.42264,1.16579,0.929466
1768149441474,-0.0081875,0.00201367,1.00265,-2.2089,1.21159,0.753893
1768149441487,-0.000375003,0.0051875,0.994597,-2.2318,1.24212,0.990534
1768149441500,-0.00208399,0.00591992,0.99362,-2.47608,1.16579,1.08214
1768149441512,0.00621679,0.000792965,1.00387,-2.40737,1.15815,1.05924
1768149441525,0.000357419,0.000548825,1.00509,-2.35394,1.24976,1.03634
1768149441538,0.0020664,-0.00116016,1.00265,-2.2547,1.20395,0.860763
1768149441551,0.00328711,0.000792965,0.999968,-2.43791,1.25739,0.967634
1768149441563,-0.00183985,-0.000427738,1.00143,-2.34631,1.28029,0.883664
1768149441576,-0.00110742,6.05434e-05,0.994108,-2.36157,1.18105,0.906565
1768149441589,-0.000863284,0.00225781,0.997771,-2.24707,1.19632,0.952366
1768149441602,0.00353125,0.00103711,0.998991,-2.40737,1.15052,0.967634
1768149441614,-0.00208399,0.00274609,1.00387,-2.54478,1.10472,0.845496
1768149441627,-0.00330469,-0.0014043,1.01095,-2.42264,1.17342,1.02107
1768149441640,0.00255468,0.00128125,1.00632,-2.30814,1.16579,0.929466
1768149441653,-0.000863284,-0.0014043,1.0007,-2.40737,1.13525,0.891298
1768149441666,-0.00183985,0.00567578,1.00143,-2.186,1.10472,1.02107
1768149441678,-0.0081875,-0.002625,0.994841,-2.36157,1.21159,0.952366
1768149441691,0.00255468,0.00543164,0.995817,-2.3234,1.34899,0.937099
1768149441704,0.000357419,-0.002625,0.999968,-2.33867,1.09708,1.03634
1768149441717,0.00182226,-0.00213672,1.00046,-2.45318,1.05128,1.0058
1768149441729,0.00304297,0.00469922,1.009,-2.26234,1.42533,1.02107
1768149441742,-0.00379297,-0.000183597,0.995085,-2.13256,1.09708,0.944733
1768149441755,-0.000375003,0.00469922,0.995573,-2.31577,1.31082,0.944733
1768149441768,0.00108984,0.00445507,0.999235,-2.33104,1.21922,0.952366
1768149441780,0.00060156,0.00201367,0.998259,-2.37684,1.29556,0.914199
1768149441793,-0.00452539,0.00225781,0.998991,-2.34631,1.36426,1.05924
1768149441806,-0.000375003,-0.00457813,0.993132,-2.26997,1.08945,0.883664
1768149441819,0.0020664,0.00152539,1.00509,-2.3234,1.05128,1.04397
1768149441832,0.00060156,-0.00457813,1.00387,-2.42264,1.08182,0.814962
1768149441844,-0.00135157,0.0105586,1.00339,-2.46844,1.20395,1.05924
1768149441857,-0.00159571,-0.00555469,1.00509,-2.30814,1.31082,0.898931
1768149441870,0.000845701,-0.00457813,0.993864,-2.3234,1.18869,0.921832
1768149441883,0.00182226,-0.000671878,1.00802,-2.44554,1.21159,0.975267
1768149441896,-0.00208399,-0.00164844,1.00436,-2.2776,1.23449,0.784428
1768149441908,-0.00306055,-0.00189258,1.00973,-2.33104,1.27266,0.952366
1768149441921,-0.00135157,0.00274609,0.997282,-2.22417,1.08182,0.906565
1768149441934,-0.00208399,0.0051875,1.00021,-2.49898,1.19632,1.17374
1768149441947,0.00304297,0.00347851,0.99655,-2.44554,1.18869,1.03634
1768149441959,-0.00501367,-0.00238086,1.00094,-2.44554,1.28792,0.868397
1768149441972,-0.00379297,-0.00238086,1.00632,-2.2776,1.24976,1.02107
1768149441985,0.00157812,-0.00384571,1.00534,-2.10966,1.23449,0.868397
1768149441998,-0.00232813,0.00176953,0.995817,-2.2547,1.19632,0.921832
1768149442011,0.00572851,0.00152539,1.00558,-2.2318,1.33373,1.0516
1768149442023,-0.00183985,0.00274609,1.00168,-2.49898,1.28792,1.06687
1768149442036,-0.00476953,-0.00677539,1.00827,-2.21653,1.14289,0.96
1768149442049,0.00279883,0.00225781,1.00241,-2.42264,1.18105,0.906565
1768149442062,0.00182226,0.000304684,1.00485,-2.43027,1.05128,0.914199
1768149442074,0.00328711,-0.000183597,1.00387,-2.43027,1.32609,1.01344
1768149442087,0.00426367,0.00469922,1.00583,-2.30814,1.23449,0.921832
1768149442100,0.00377539,-0.00360157,1.00046,-2.46081,1.34136,0.944733
1768149442113,-0.00232813,0.00616406,0.998503,-2.34631,1.39479,0.96
1768149442125,-0.00525782,0.00250195,1.00046,-2.26997,1.19632,0.944733
1768149442138,-0.00110742,0.00714062,0.998503,-2.3234,1.15815,1.0058
1768149442151,-0.00110742,-0.00555469,1.00754,-2.36921,1.33373,1.04397
1768149442164,0.000113279,0.0105586,0.997526,-2.41501,1.16579,0.837863
1768149442177,0.00255468,-0.00433399,1.00754,-2.31577,1.27266,0.914199
1768149442189,0.00108984,0.00176953,0.999968,-2.37684,1.05128,0.906565
1768149442202,-0.000130862,0.00616406,0.994108,-2.38447,1.10472,1.01344
1768149442215,-0.00159571,-0.000916019,1.00119,-2.40737,1.18105,0.837863
1768149442228,0.000113279,0.00103711,0.996306,-2.3005,1.32609,0.921832
1768149442240,-0.00183985,0.00274609,0.997038,-2.19363,1.13525,1.0058
1768149442253,-0.000375003,-0.000916019,1.00558,-2.39974,1.23449,0.876031
1768149442266,0.00426367,-0.00555469,1.00314,-2.29287,1.34899,0.967634
1768149442279,-0.000619143,0.00103711,1.00925,-2.29287,1.24212,0.914199
1768149442291,-0.00257227,6.05434e-05,0.992399,-2.35394,1.06655,1.01344
1768149442304,0.00816992,0.00543164,1.00265,-2.44554,1.34899,1.05924
1768149442317,0.00353125,-0.00116016,0.99362,-2.19363,1.22685,0.906565
1768149442330,-0.00159571,0.000548825,1.00168,-2.26234,1.18105,0.96
1768149442343,0.0020664,0.00201367,1.0029,-2.53714,1.17342,0.998168
1768149442355,-0.00257227,0.00225781,1.00925,-2.29287,1.11235,0.906565
1768149442368,-0.00306055,0.00299023,0.99948,-2.36921,1.21159,0.898931
1768149442381,0.00060156,0.00396679,1.0029,-2.31577,1.14289,1.0516
1768149442394,0.0020664,0.00103711,0.994353,-2.33867,1.24976,0.906565
1768149442406,-0.000863284,0.00103711,1.00534,-2.39211,1.20395,0.967634
1768149442419,-0.000375003,-0.000183597,0.996062,-2.39974,1.20395,1.02107
1768149442432,0.00353125,-0.002625,0.999968,-2.23944,1.22685,0.929466
1768149442445,0.00060156,0.000548825,0.995817,-2.33867,1.02075,0.967634
1768149442457,-0.00232813,0.00347851,1.00387,-2.29287,1.26502,1.05924
1768149442470,0.00108984,-0.00213672,1.0029,-2.26997,1.11998,0.868397
1768149442483,0.00133398,0.00591992,0.998747,-2.38447,1.32609,0.952366
1768149442496,0.00157812,-0.000916019,0.999724,-2.3234,1.18869,0.921832
1768149442509,-0.00379297,-0.000916019,1.0029,-2.31577,1.12762,1.0745
1768149442521,0.00231054,-0.000427738,1.00656,-2.33867,1.14289,1.02107
1768149442534,-0.00525782,-0.000427738,1.00509,-2.33867,1.18105,0.891298
1768149442547,-0.00281641,-0.000427738,1.00558,-2.39211,1.35663,0.822595
1768149442560,0.00133398,-0.00360157,0.99655,-2.38447,1.21922,0.883664
1768149442572,0.00816992,0.00469922,1.00168,-2.42264,1.00548,0.975267
1768149442585,-0.00354883,0.00201367,1.00509,-2.36157,1.24976,0.975267
1768149442598,-0.0111172,0.000304684,0.996062,-2.3234,1.04365,1.01344
1768149442611,-0.00281641,0.00372265,1.00705,-2.43027,1.09708,0.937099
1768149442623,0.00475195,-0.0014043,1.01071,-2.26997,1.05892,0.990534
1768149442636,0.00621679,0.00299023,0.996794,-2.26997,1.28029,0.883664
1768149442649,-0.00135157,0.00274609,1.00558,-2.52951,1.25739,0.883664
1768149442662,-0.000130862,-0.000671878,1.0068,-2.26234,1.02075,0.876031
1768149442675,0.00182226,0.00738476,1.00387,-2.33867,1.05892,0.906565
1768149442687,-0.00525782,0.000792965,0.998747,-2.28524,1.08945,0.998168
1768149442700,0.00133398,0.00103711,1.00119,-2.23944,1.20395,0.807328
1768149442713,0.00255468,0.00421093,1.00925,-2.2547,1.18105,0.921832
1768149442726,-0.000130862,0.000304684,1.00265,-2.38447,1.11998,1.06687
1768149442739,-0.00525782,-0.00238086,1.00461,-2.29287,1.13525,0.906565
1768149442752,0.00328711,-0.00335743,1.00802,-2.52951,1.10472,0.990534
1768149442764,-0.00354883,0.00421093,1.00436,-2.41501,1.21922,0.807328
1768149442777,0.000357419,0.00323437,1.00705,-2.33867,1.19632,0.998168
1768149442790,0.00353125,0.00201367,0.997038,-2.43791,1.15815,0.876031
1768149442803,0.000113279,0.00665234,1.00094,-2.35394,1.11235,0.906565
1768149442815,-0.00379297,0.000548825,1.00436,-2.39211,1.08182,1.0287
1768149442828,0.00353125,-0.0014043,1.00827,-2.48371,1.21922,0.937099
1768149442841,-0.00354883,0.00201367,1.00729,-2.35394,1.27266,0.845496
1768149442854,-0.00232813,6.05434e-05,0.99948,-2.39974,1.15052,0.929466
1768149442867,-0.000619143,0.00543164,1.00729,-2.31577,1.08182,0.929466
1768149442880,0.00279883,0.00250195,1.00509,-2.28524,1.13525,0.929466
1768149442892,0.00304297,0.00225781,1.00656,-2.3234,1.22685,0.952366
1768149442905,0.00450781,0.00494336,0.996794,-2.45318,1.13525,0.822595
1768149442918,0.0020664,0.00103711,0.995817,-2.35394,0.997847,1.06687
1768149442931,-0.00110742,0.0051875,0.996306,-2.36921,1.09708,0.952366
1768149442944,-0.00501367,-0.00189258,1.00656,-2.34631,1.21922,0.998168
1768149442956,0.00597265,-0.000427738,0.99655,-2.28524,1.25739,0.921832
1768149442969,-0.00135157,6.05434e-05,0.994108,-2.3005,1.16579,1.05924
1768149442982,-0.00428125,-0.00238086,1.00802,-2.31577,1.23449,1.03634
1768149442995,-0.00159571,0.00176953,1.00143,-2.49134,1.31082,0.944733
1768149443007,0.000845701,-0.00457813,1.00265,-2.26234,1.27266,0.975267
1768149443020,-0.00428125,0.000548825,0.994108,-2.37684,1.22685,0.990534
1768149443033,0.00304297,0.00201367,0.994353,-2.53714,1.28792,0.845496
1768149443046,-0.00452539,-0.00311328,1.00436,-2.26997,1.17342,1.02107
1768149443058,0.00231054,0.00347851,0.993864,-2.45318,1.24976,0.860763
1768149443071,0.00133398,0.00225781,1.00119,-2.26234,1.19632,1.01344
1768149443084,0.0074375,0.00225781,1.00754,-2.47608,1.27266,0.837863
1768149443097,0.00060156,-0.000427738,0.995817,-2.38447,1.10472,0.891298
1768149443110,0.00255468,0.000304684,1.00387,-2.41501,1.28029,0.906565
1768149443122,0.00108984,0.00250195,0.99655,-2.41501,1.18105,1.05924
1768149443135,-0.00330469,0.00323437,1.009,-2.29287,1.21922,0.868397
1768149443148,-0.00208399,-0.000427738,0.993376,-2.30814,1.10472,0.921832
1768149443161,0.00499609,0.00103711,0.998015,-2.31577,1.27266,0.937099
1768149443173,-0.00379297,0.000548825,0.996794,-2.43027,0.952046,0.837863
1768149443186,0.00133398,-0.000183597,1.00656,-2.46844,1.20395,0.952366
1768149443199,0.00231054,0.00128125,0.999968,-2.20127,1.45586,0.952366
1768149443212,0.000357419,-0.000183597,1.00363,-2.34631,1.27266,0.967634
1768149443225,-0.00306055,-0.00335743,1.00119,-2.36921,1.37953,0.937099
1768149443237,0.00157812,0.00201367,1.00192,-2.23944,1.02075,0.860763
1768149443250,-0.00110742,0.00299023,1.01071,-2.33867,1.25739,0.914199
1768149443263,-0.00281641,0.00103711,1.01217,-2.39211,1.25739,0.952366
1768149443276,-0.00354883,6.05434e-05,1.00265,-2.33104,1.28792,1.0974
1768149443288,0.00426367,0.000304684,1.01413,-2.2776,1.26502,0.952366
1768149443301,-0.000130862,-0.000916019,1.00143,-2.40737,1.12762,0.906565
1768149443314,-0.00135157,-0.0014043,0.992399,-2.29287,1.09708,0.921832
1768149443327,0.0020664,-0.00213672,0.998015,-2.28524,1.26502,0.952366
1768149443340,0.00060156,6.05434e-05,1.00265,-2.33104,1.29556,0.990534
1768149443352,-0.000130862,0.00274609,1.0134,-2.35394,1.12762,0.830229
1768149443365,-0.000130862,0.000304684,1.00485,-2.15547,1.34899,0.96
1768149443378,0.00401953,-0.000183597,1.0007,-2.50661,1.02075,0.807328
1768149443391,-0.000375003,0.00128125,0.992155,-2.33867,1.26502,0.891298
1768149443403,-0.000863284,-0.00311328,1.00461,-2.37684,1.15052,0.96
1768149443416,0.00450781,0.0064082,1.00046,-2.43791,1.13525,0.944733
1768149443429,0.00597265,0.000304684,0.993376,-2.43027,1.17342,1.01344
1768149443442,-0.00110742,0.00396679,0.999968,-2.42264,1.24212,0.906565
1768149443454,0.00426367,0.00128125,1.00021,-2.40737,1.02838,0.868397
1768149443467,-0.000130862,0.00665234,0.992644,-2.51424,1.18105,0.990534
1768149443480,0.00255468,0.00421093,0.992644,-2.29287,1.24212,0.814962
1768149443493,0.000357419,0.00299023,0.996794,-2.39211,1.21159,0.830229
1768149443505,-0.00501367,0.00616406,1.00339,-2.33867,1.30319,0.883664
1768149443518,0.00524023,0.00591992,1.00534,-2.55241,1.24976,0.975267
1768149443531,-0.010873,0.00494336,1.00925,-2.33867,1.23449,0.860763
1768149443544,-0.00428125,-0.00579883,1.0068,-2.29287,1.35663,0.96
1768149443556,-0.00306055,0.00274609,0.997282,-2.28524,1.24976,1.0058
1768149443569,-0.00428125,0.00250195,1.00339,-2.33867,1.10472,0.982901
1768149443582,0.00133398,0.00128125,1.00265,-2.3234,1.15052,0.998168
1768149443595,-0.00183985,-0.00506641,0.997526,-2.56768,1.13525,1.03634
1768149443608,-0.00354883,-0.0014043,1.00705,-2.33867,1.24212,1.08214
1768149443620,0.00353125,-0.00433399,0.997038,-2.17073,1.05128,0.814962
1768149443633,-0.00452539,6.05434e-05,1.00339,-2.43027,1.16579,1.01344
1768149443646,0.00353125,-0.00433399,1.00339,-2.26997,1.28029,0.837863
1768149443659,-0.00281641,0.00714062,1.00583,-2.35394,1.15052,0.96
1768149443671,0.000113279,-0.00628711,0.999968,-2.47608,1.23449,0.952366
1768149443684,0.00133398,-0.00238086,1.00387,-2.37684,1.32609,0.937099
1768149443697,0.00108984,-0.00238086,1.00339,-2.35394,1.05892,0.952366
1768149443710,-0.00403711,0.00445507,0.994108,-2.29287,1.15815,0.898931
1768149443722,-0.00428125,0.00323437,1.00656,-2.38447,1.17342,0.990534
1768149443735,0.00255468,0.000548825,1.00509,-2.37684,1.26502,0.845496
1768149443748,0.00060156,0.00372265,1.00363,-2.36157,1.29556,0.982901
1768149443761,0.00328711,0.00128125,0.998747,-2.40737,1.38716,1.15847
1768149443773,-0.00183985,6.05434e-05,1.00314,-2.15547,1.31082,0.952366
1768149443786,0.00426367,-0.000183597,0.999968,-2.2547,1.10472,0.822595
1768149443799,-0.00330469,0.000792965,1.00192,-2.3234,1.02075,0.860763
1768149443812,0.000845701,0.00494336,1.00412,-2.33867,1.18105,0.990534
1768149443824,-0.00794336,0.000792965,1.00265,-2.39974,1.16579,0.898931
1768149443837,-0.00721094,0.00274609,1.00607,-2.39974,1.31846,0.891298
1768149443850,-0.00501367,-0.00335743,1.00265,-2.38447,1.22685,1.0287
1768149443863,-0.000375003,0.00128125,0.995573,-2.2547,1.16579,0.860763
1768149443876,-0.00183985,0.00225781,0.998503,-2.36157,1.15815,0.906565
1768149443888,-0.00208399,0.00225781,0.994353,-2.35394,1.28029,1.0516
1768149443901,0.00108984,0.00128125,1.00094,-2.31577,1.17342,0.830229
1768149443914,-0.00208399,-0.00384571,1.00387,-2.36157,1.12762,0.906565
1768149443927,-0.00354883,0.000304684,1.00094,-2.30814,1.38716,0.883664
1768149443940,-0.0057461,-0.000427738,0.999724,-2.40737,1.30319,0.990534
1768149443952,0.000845701,-0.00238086,1.0029,-2.45318,1.26502,0.952366
1768149443965,-0.00403711,-0.00238086,1.00119,-2.39211,1.16579,1.13557
1768149443978,0.00108984,0.000304684,0.986784,-2.35394,1.04365,0.868397
1768149443991,-0.000130862,0.00103711,1.01071,-2.30814,1.27266,0.921832
1768149444004,-0.000375003,0.00396679,0.998747,-2.46844,1.24976,1.0058
1768149444016,0.00108984,0.00250195,1.00973,-2.35394,1.11235,0.914199
1768149444029,0.000113279,0.00591992,1.00339,-2.45318,1.18869,0.883664
1768149444042,-0.00330469,0.000304684,0.995817,-2.39211,1.12762,0.944733
1768149444055,-0.000130862,-0.000916019,0.998259,-2.36921,1.10472,0.814962
1768149444068,0.00255468,0.00152539,0.998015,-2.48371,1.15052,0.784428
1768149444080,-0.000619143,0.00103711,1.01071,-2.36157,1.04365,0.982901
1768149444093,-0.000863284,0.00201367,0.99948,-2.36921,1.31846,1.01344
1768149444106,0.00060156,0.00176953,1.00412,-2.40737,1.15815,0.860763
1768149444119,0.00426367,-0.00213672,1.00046,-2.36921,1.16579,0.929466
1768149444131,-0.000619143,-0.00457813,1.00241,-2.28524,1.20395,0.845496
1768149444144,0.00963476,-0.00213672,1.00119,-2.30814,0.959679,1.0745
1768149444157,-0.00354883,0.00225781,1.00168,-2.31577,1.14289,0.868397
1768149444170,0.00182226,-0.00384571,1.0029,-2.23944,1.09708,0.85313
1768149444182,-0.00183985,0.00933789,1.0068,-2.40737,1.22685,1.0745
1768149444195,-0.00208399,6.05434e-05,1.0007,-2.31577,1.07418,0.998168
1768149444208,-0.00379297,0.00274609,0.996062,-2.37684,1.07418,0.898931
1768149444221,0.00475195,0.00714062,0.997282,-2.42264,1.09708,1.04397
1768149444234,-0.00159571,0.00201367,1.00094,-2.36157,1.20395,0.921832
1768149444246,-0.00330469,-0.000916019,1.00265,-2.26997,1.37953,0.921832
1768149444259,-0.00159571,-0.00238086,0.998015,-2.42264,1.02838,0.860763
1768149444272,-0.00232813,0.00347851,1.00754,-2.37684,1.31846,1.01344
1768149444285,0.00157812,0.00323437,1.00021,-2.22417,1.11235,1.0974
1768149444297,-0.000130862,0.00421093,1.0007,-2.20127,1.25739,0.929466
1768149444310,-0.00208399,-0.00360157,1.00094,-2.28524,1.28792,0.96
1768149444323,-0.000375003,-0.00189258,1.00705,-2.50661,1.18869,0.860763
1768149444336,0.0020664,0.00347851,0.992644,-2.35394,1.14289,0.860763
1768149444348,0.00328711,0.00201367,1.00241,-2.3234,1.18869,1.05924
1768149444361,0.0020664,0.00445507,1.00094,-2.41501,1.10472,1.01344
1768149444374,-0.00281641,0.00128125,1.00094,-2.38447,1.31082,0.807328
1768149444387,-0.00208399,-0.00238086,1.00363,-2.33104,1.24976,0.776794
1768149444399,-0.00232813,-0.002625,1.00729,-2.23944,1.12762,1.12031
1768149444412,-0.00428125,0.00201367,1.0029,-2.44554,1.11998,0.891298
1768149444425,-0.00428125,0.00323437,0.998259,-2.43791,1.08945,0.975267
1768149444438,-0.00379297,6.05434e-05,1.00363,-2.33104,1.31846,1.05924
1768149444450,0.00353125,0.00225781,1.00168,-2.35394,1.08182,1.05924
1768149444463,0.00255468,-0.00116016,1.00973,-2.40737,1.06655,1.08977
1768149444476,0.00133398,-0.00189258,0.999235,-2.39211,1.16579,0.845496
1768149444489,0.00133398,-0.00164844,1.00632,-2.20127,1.42533,1.01344
1768149444502,-0.000375003,0.00274609,1.0029,-2.2089,1.16579,0.830229
1768149444514,-0.00159571,0.00543164,0.994353,-2.3234,1.21922,0.952366
1768149444527,0.00450781,-0.00213672,1.00705,-2.52188,1.11998,0.952366
1768149444540,0.00255468,-0.00116016,0.999235,-2.33867,1.32609,1.0058
1768149444553,-0.00379297,-0.0014043,1.00046,-2.28524,1.09708,0.860763
1768149444565,0.000845701,0.000792965,1.0029,-2.39211,1.16579,0.898931
1768149444578,-0.00183985,0.00250195,1.00461,-2.23944,1.08182,0.837863
1768149444591,-0.00135157,0.00250195,1.00509,-2.26234,1.28029,0.776794
1768149444604,0.00133398,-0.00189258,1.00754,-2.57531,1.34136,0.990534
1768149444616,0.000845701,-0.00457813,1.0029,-2.28524,1.13525,0.914199
1768149444629,-0.0057461,0.000548825,1.00339,-2.26234,1.22685,0.860763
1768149444642,0.00328711,0.00250195,1.00729,-2.29287,1.11235,0.975267
1768149444655,0.00133398,-0.00579883,0.999235,-2.49898,1.23449,0.929466
1768149444668,0.00304297,0.00494336,0.998015,-2.17837,1.25739,0.975267
1768149444680,-0.00428125,0.00738476,1.00339,-2.57531,1.12762,0.967634
1768149444693,-0.000863284,0.000304684,1.00241,-2.39974,1.27266,0.898931
1768149444706,-0.00281641,0.00250195,0.997282,-2.43027,1.23449,0.822595
1768149444719,0.00108984,0.00152539,1.00217,-2.3234,1.09708,0.967634
1768149444731,0.00060156,-0.000183597,1.00485,-2.40737,1.32609,1.02107
1768149444744,0.00060156,0.00445507,1.0029,-2.33104,1.15815,1.03634
1768149444757,-0.000375003,0.00591992,1.00754,-2.42264,1.22685,0.982901
1768149444770,-0.00159571,-0.00506641,1.00168,-2.3234,1.25739,0.990534
1768149444782,0.00475195,0.00225781,0.998991,-2.24707,1.28792,0.96
1768149444795,-0.00379297,-0.000916019,1.00509,-2.35394,1.25739,1.0058
1768149444808,0.0020664,0.00201367,1.00217,-2.3005,1.18105,1.03634
1768149444821,-0.000619143,0.00372265,1.00729,-2.31577,1.41006,0.96
1768149444833,0.00328711,-0.00384571,0.988493,-2.44554,1.24976,0.898931
1768149444846,0.000357419,-0.00408985,1.00509,-2.35394,1.15052,0.822595
1768149444859,-0.00476953,0.00347851,1.00339,-2.28524,1.18869,0.952366
1768149444872,0.00572851,-0.00116016,0.995329,-2.39974,1.23449,0.891298
1768149444885,0.00377539,0.00738476,1.00485,-2.37684,1.14289,0.944733
1768149444898,-0.00183985,-0.000916019,1.00485,-2.33104,1.12762,0.914199
1768149444910,0.00401953,0.000304684,1.00314,-2.29287,1.02838,1.0287
1768149444923,-0.00183985,0.000548825,1.00241,-2.36157,1.20395,0.860763
1768149444936,0.00597265,-0.00116016,1.00778,-2.40737,1.34136,0.822595
1768149444949,-0.000375003,0.00372265,1.009,-2.28524,1.24212,0.96
1768149444961,-0.000619143,0.00176953,0.993376,-2.34631,1.21922,0.967634
1768149444974,-0.00379297,-0.000183597,1.00534,-2.38447,1.21159,1.04397
1768149444987,0.00157812,0.000548825,1.00314,-2.40737,1.17342,0.898931
1768149445000,0.00621679,0.000548825,1.00363,-2.37684,1.20395,0.975267
1768149445012,0.00060156,0.00372265,1.00021,-2.33104,1.15052,0.944733
1768149445025,-0.00379297,0.00738476,1.00607,-2.35394,1.33373,0.96
1768149445038,0.000357419,0.00103711,1.00339,-2.37684,0.967313,0.967634
1768149445051,0.000357419,0.00543164,1.00168,-2.2547,1.12762,1.06687
1768149445063,-0.00183985,-0.000183597,1.00705,-2.53714,1.30319,0.891298
1768149445076,0.00157812,-0.00311328,0.992888,-2.21653,1.11235,0.998168
1768149445089,-0.00379297,-0.00213672,1.00583,-2.37684,1.16579,1.03634
1768149445102,0.00328711,0.00372265,1.00802,-2.39211,1.34136,0.975267
1768149445115,0.000357419,-0.00164844,1.00509,-2.22417,1.21922,0.898931
1768149445127,0.00914648,-0.000183597,1.00461,-2.49898,1.05128,0.715725
1768149445140,-0.00232813,-0.000183597,0.997771,-2.2547,1.17342,0.96
1768149445153,0.00524023,-0.00213672,0.999724,-2.59821,1.20395,0.967634
1768149445166,0.000357419,0.0064082,0.996794,-2.29287,1.14289,1.01344
1768149445178,-0.000375003,0.00494336,1.00876,-2.2776,1.05128,0.883664
1768149445191,-0.00208399,-0.00189258,0.993864,-2.30814,1.08945,0.990534
1768149445204,-0.000375003,-0.00579883,0.997771,-2.36921,1.23449,0.860763
1768149445217,-0.00721094,-0.000916019,1.00827,-2.36157,1.10472,1.02107
1768149445229,0.00353125,-0.00116016,1.0007,-2.2776,1.34899,1.08977
1768149445242,0.00524023,0.000792965,1.00632,-2.49134,1.17342,0.998168
1768149445255,0.00475195,0.00347851,1.00851,-2.36921,1.17342,0.967634
1768149445268,0.00133398,-0.00701953,0.991667,-2.28524,1.33373,0.990534
1768149445281,0.00328711,0.00274609,0.997771,-2.2776,1.30319,0.906565
1768149445293,0.0020664,0.000304684,1.00314,-2.19363,1.15052,1.01344
1768149445306,-0.00745508,-0.00384571,0.999968,-2.17837,1.19632,1.01344
1768149445319,-0.00550196,6.05434e-05,1.00485,-2.20127,1.18105,0.792061
1768149445332,-0.00232813,0.000548825,0.999968,-2.31577,1.02838,0.929466
1768149445344,-0.00281641,0.00421093,1.00705,-2.36157,1.32609,0.784428
1768149445357,-0.00843164,0.000548825,1.00876,-2.40737,1.22685,0.876031
1768149445370,-0.00281641,0.00103711,1.00949,-2.39211,1.24212,1.0516
1768149445383,-0.00110742,0.00201367,1.00168,-2.2547,1.18105,0.944733
1768149445395,0.00182226,0.00103711,0.996306,-2.45318,1.18869,1.01344
1768149445408,-0.00281641,-0.00335743,0.998747,-2.21653,1.20395,0.929466
1768149445421,0.00377539,0.00323437,0.998503,-2.49134,1.27266,0.883664
1768149445434,0.00475195,0.00225781,1.0134,-2.23944,1.11998,0.952366
1768149445447,-0.00110742,0.0064082,1.01047,-2.36157,1.23449,0.96
1768149445459,0.00060156,0.00738476,0.997282,-2.50661,1.11998,0.982901
1768149445472,0.00060156,-0.00164844,0.995085,-2.42264,1.22685,0.914199
1768149445485,0.000357419,-0.00946094,0.995817,-2.42264,1.22685,0.814962
1768149445498,-0.00672266,0.00372265,1.00778,-2.43791,1.15815,0.982901
1768149445510,-0.0057461,-0.00189258,0.999968,-2.38447,1.09708,0.975267
1768149445523,0.00401953,0.00128125,1.00143,-2.36157,1.20395,1.02107
1768149445536,0.00597265,-0.00384571,1.00119,-2.42264,1.37189,0.906565
1768149445549,0.000113279,0.000792965,1.00827,-2.34631,1.27266,0.96
1768149445561,0.00182226,-0.00213672,0.995085,-2.26234,1.28792,1.0287
1768149445574,0.00255468,6.05434e-05,0.995329,-2.51424,1.11998,1.0974
1768149445587,0.00108984,0.00396679,1.00485,-2.39974,1.14289,0.96
1768149445600,-0.00232813,0.00225781,1.00827,-2.42264,1.32609,1.02107
1768149445612,-0.000375003,0.00103711,1.00509,-2.22417,1.34136,0.868397
1768149445625,-0.00232813,0.000548825,0.995085,-2.2776,1.31846,0.952366
1768149445638,-0.00159571,-0.000427738,0.999724,-2.34631,1.42533,0.921832
1768149445651,0.00182226,-0.00213672,1.00705,-2.36921,1.15052,0.990534
1768149445663,-0.00232813,0.00811718,1.00656,-2.33104,1.17342,0.876031
1768149445676,-0.000863284,0.000548825,1.00363,-2.186,1.30319,0.967634
1768149445689,-0.00110742,0.0051875,1.00339,-2.28524,1.18105,1.03634
1768149445702,-0.00135157,0.000792965,1.00339,-2.36157,1.32609,0.914199
1768149445715,-0.00110742,0.00347851,0.998747,-2.35394,1.31846,0.860763
1768149445727,-0.000375003,0.00250195,1.00387,-2.14783,1.20395,0.906565
1768149445740,-0.000863284,0.00128125,0.994353,-2.43027,1.02075,0.784428
1768149445753,0.00255468,0.00225781,1.00583,-2.33867,0.921511,0.883664
1768149445766,0.00328711,-0.00555469,1.00387,-2.31577,1.26502,1.0058
1768149445778,0.000113279,0.00152539,0.998991,-2.2776,1.28029,0.937099
1768149445791,-0.00379297,-0.00189258,1.00851,-2.2776,1.18869,0.952366
1768149445804,-0.00306055,0.00787304,1.00168,-2.42264,1.11235,0.998168
1768149445817,-0.000375003,-0.00238086,1.00656,-2.35394,1.08945,0.914199
1768149445829,0.00182226,0.00347851,1.00339,-2.38447,1.31082,0.929466
1768149445842,0.00328711,-0.00164844,1.00534,-2.33867,1.28792,0.883664
1768149445855,0.00255468,6.05434e-05,1.00534,-2.24707,1.18105,0.937099
1768149445868,0.00231054,0.00323437,1.00021,-2.44554,1.27266,1.0287
1768149445881,-0.00550196,0.00274609,1.00119,-2.3005,1.02838,0.822595
1768149445893,0.0020664,0.0064082,0.998503,-2.1631,1.15052,0.944733
1768149445906,0.00377539,0.000304684,0.991423,-2.42264,1.27266,0.929466
1768149445919,0.000357419,-0.00213672,1.00021,-2.31577,0.959679,1.02107
1768149445932,0.00133398,0.00250195,0.995085,-2.39211,1.24212,0.975267
1768149445944,-0.000863284,0.00396679,0.994108,-2.36921,1.18105,0.814962
1768149445957,0.00182226,0.00567578,0.997038,-2.38447,1.13525,0.914199
1768149445970,-0.00110742,-0.00164844,1.0068,-2.2318,1.28029,0.898931
1768149445983,-0.000863284,0.00103711,0.999235,-2.33867,1.09708,0.937099
1768149445996,-0.00379297,0.000792965,1.00265,-2.46844,1.23449,0.967634
1768149446008,-0.00135157,0.00469922,0.998991,-2.26234,1.21922,1.01344
1768149446021,0.000357419,0.00128125,1.00436,-2.33867,1.22685,0.929466
1768149446034,-0.00232813,0.00128125,1.00509,-2.36921,1.10472,0.967634
1768149446047,-0.00452539,0.00714062,1.00094,-2.43791,1.29556,0.845496
1768149446059,0.00353125,0.00103711,0.995329,-2.39211,1.11998,0.784428
1768149446072,-0.00232813,-0.00775196,1.00802,-2.30814,1.09708,0.914199
1768149446085,0.0020664,0.00909375,1.00827,-2.3005,1.28792,0.975267
1768149446098,-0.00208399,-0.000671878,0.993864,-2.19363,1.25739,0.998168
1768149446110,0.000113279,0.0108027,1.00632,-2.34631,1.24212,0.883664
1768149446123,-0.00330469,0.00299023,1.00192,-2.35394,1.15815,0.937099
1768149446136,-0.00232813,0.00152539,1.0068,-2.41501,1.36426,0.868397
1768149446149,-0.00403711,0.00103711,0.99655,-2.29287,1.29556,0.937099
1768149446162,0.00133398,-0.00189258,1.0068,-2.39974,1.06655,0.837863
1768149446174,0.00157812,0.00176953,0.998015,-2.26997,1.19632,0.975267
1768149446187,0.00255468,0.000304684,1.00314,-2.35394,1.08945,0.998168
1768149446200,-0.000863284,0.00250195,0.998991,-2.43791,1.32609,0.975267
1768149446213,-0.000130862,0.00567578,1.00119,-2.21653,1.21159,0.799695
1768149446225,-0.00183985,0.00323437,0.998747,-2.57531,0.974947,0.883664
1768149446238,0.00255468,0.000548825,1.0029,-2.34631,1.26502,0.921832
1768149446251,-0.00257227,0.00445507,0.997526,-2.34631,1.25739,0.998168
1768149446264,0.00328711,0.00201367,1.0112,-2.2776,1.28029,0.906565
1768149446277,0.00304297,0.00128125,1.00412,-2.43791,1.07418,1.05924
1768149446289,-0.000863284,0.000792965,1.00143,-2.3234,1.28029,0.868397
1768149446302,-0.00721094,-0.00506641,0.997282,-2.39974,1.22685,0.876031
1768149446315,-0.00306055,-0.00213672,0.999724,-2.38447,1.24976,1.05924
1768149446328,0.0074375,0.00250195,0.998991,-2.53714,1.28792,1.0287
1768149446340,-0.00476953,-0.00213672,1.00363,-2.45318,1.10472,0.975267
1768149446353,-0.00330469,0.00176953,0.997038,-2.34631,1.23449,0.990534
1768149446366,0.000357419,0.00225781,1.00509,-2.38447,1.31846,0.906565
1768149446379,-0.000375003,0.00103711,0.998991,-2.3234,1.20395,0.906565
1768149446391,0.0020664,-0.000916019,1.00851,-2.35394,1.39479,1.03634
1768149446404,-0.000375003,-0.000427738,1.00436,-2.23944,1.21159,1.06687
1768149446417,0.00279883,-0.000427738,1.00168,-2.43027,1.35663,0.891298
1768149446430,0.0074375,0.00274609,1.00436,-2.45318,1.11998,0.982901
1768149446443,0.000357419,0.00201367,1.01071,-2.29287,1.23449,1.01344
1768149446455,-0.00501367,0.00225781,1.01169,-2.30814,1.08182,1.0745
1768149446468,0.00108984,0.00128125,1.00632,-2.33104,1.21159,0.898931
1768149446481,0.00670508,-0.000427738,1.00217,-2.2776,1.21159,0.914199
1768149446494,0.00182226,0.00225781,1.00143,-2.35394,0.997847,0.990534
1768149446506,0.00401953,-0.000671878,1.0029,-2.33104,1.24212,0.883664
1768149446519,0.00353125,0.00347851,1.00387,-2.45318,1.26502,0.891298
1768149446532,-0.000619143,0.00152539,1.00363,-2.22417,1.13525,1.0058
1768149446545,0.00304297,0.00665234,1.01047,-2.26234,1.05892,0.906565
1768149446558,0.00524023,0.000548825,1.00094,-2.29287,1.18869,0.967634
1768149446570,0.00670508,0.00469922,0.992399,-2.34631,1.23449,1.02107
1768149446583,-0.00306055,-0.000427738,1.00632,-2.24707,1.11235,0.914199
1768149446596,-0.00232813,-0.00384571,1.00802,-2.30814,1.20395,0.868397
1768149446609,0.0020664,0.00787304,1.00241,-2.28524,1.12762,1.01344
1768149446622,0.00646093,6.05434e-05,1.0029,-2.39211,1.13525,1.0287
1768149446634,-0.00452539,0.00689648,1.00754,-2.51424,1.11235,1.0287
1768149446647,0.00108984,-0.000671878,1.00314,-2.3005,1.05892,0.929466
1768149446660,0.00060156,0.00225781,1.0007,-2.2318,1.11235,0.982901
1768149446673,0.000357419,-0.00506641,1.00607,-2.33104,1.24212,1.06687
1768149446685,0.000357419,0.00469922,1.00119,-2.31577,1.01311,0.952366
1768149446698,-0.000375003,0.00421093,1.00168,-2.36157,1.05892,0.929466
1768149446711,-0.00110742,0.00201367,0.998747,-2.39211,1.28792,0.952366
1768149446724,-0.000130862,0.00591992,1.0029,-2.46081,1.05892,0.952366
1768149446736,-0.00379297,-0.00408985,0.999724,-2.14783,1.04365,0.914199
1768149446749,0.000357419,0.000548825,1.00461,-2.43791,1.21159,1.12794
1768149446762,-0.00354883,0.00201367,1.01559,-2.28524,1.05128,0.967634
1768149446775,0.000357419,-0.000916019,0.999968,-2.33104,1.07418,0.944733
1768149446787,-0.0113613,-0.000427738,1.00509,-2.19363,1.31846,0.952366
1768149446800,0.000357419,-0.000671878,1.00094,-2.45318,1.27266,1.0516
1768149446813,-0.00354883,-0.00506641,0.997282,-2.43027,1.19632,1.10504
1768149446826,0.00108984,0.00274609,1.00265,-2.39211,1.05892,1.08214
1768149446839,-0.00135157,0.000548825,1.00802,-2.37684,1.15052,1.0745
1768149446851,-0.00306055,-0.00213672,1.00387,-2.45318,1.18105,0.998168
1768149446864,0.0020664,0.00225781,1.00094,-2.22417,1.31082,0.883664
1768149446877,0.00157812,-0.000916019,1.00094,-2.29287,1.24976,0.891298
1768149446890,-0.000375003,0.00347851,1.0112,-2.22417,1.28792,0.876031
1768149446903,0.000357419,-0.002625,1.00607,-2.43791,1.15815,0.967634
1768149446915,0.00304297,0.00347851,1.00802,-2.37684,1.29556,0.891298
1768149446928,-0.00110742,0.00738476,1.00851,-2.17837,1.37189,0.952366
1768149446941,0.00279883,-0.00189258,1.0007,-2.40737,1.24976,1.04397
1768149446954,-0.00208399,0.00421093,1.00436,-2.52951,1.20395,1.04397
1768149446966,-0.00501367,-0.0014043,1.00851,-2.3005,1.14289,0.730992
1768149446979,-0.00501367,-0.000671878,0.998259,-2.49898,1.13525,0.799695
1768149446992,0.00499609,-0.000427738,1.00461,-2.49898,1.17342,0.982901
1768149447005,0.00255468,0.00347851,1.00192,-2.29287,1.26502,1.0516
1768149447017,-0.00159571,-0.00506641,1.00192,-2.24707,1.21922,0.891298
1768149447030,0.000113279,-0.000183597,0.99655,-2.34631,1.34136,1.0516
1768149447043,-0.00379297,0.00421093,0.997526,-2.2776,1.21922,0.975267
1768149447056,0.00426367,-0.000183597,0.995329,-2.43027,1.28029,1.0516
1768149447068,-0.00135157,0.00299023,0.993132,-2.28524,1.19632,0.944733
1768149447081,-0.00452539,-0.000183597,1.00412,-2.46081,1.16579,0.883664
1768149447094,0.000845701,0.00128125,0.994841,-2.46081,1.16579,0.921832
1768149447107,-0.000863284,0.00396679,0.993132,-2.1631,1.26502,0.982901
1768149447120,-0.000863284,0.00103711,1.00534,-2.33867,1.12762,0.891298
1768149447132,0.00157812,-0.00213672,0.995329,-2.40737,1.19632,0.952366
1768149447145,-0.00550196,0.00225781,1.00021,-2.34631,1.15052,0.975267
1768149447158,-0.00330469,-0.000427738,1.01462,-2.48371,1.24212,0.860763
1768149447171,0.00060156,0.00543164,0.999724,-2.42264,1.18869,1.03634
1768149447183,-0.00306055,-0.000916019,1.00314,-2.36921,1.15052,0.952366
1768149447196,0.00255468,0.00176953,1.0029,-2.29287,1.11235,0.975267
1768149447209,0.00304297,0.00103711,1.00461,-2.3234,1.19632,1.02107
1768149447222,-0.00159571,0.00665234,1.00436,-2.29287,1.27266,1.17374
1768149447234,0.00060156,-0.00408985,1.0007,-2.44554,1.11998,0.876031
1768149447247,0.00182226,0.00689648,1.00754,-2.3234,1.30319,0.998168
1768149447260,-0.000130862,-0.00311328,1.01364,-2.30814,1.08182,0.868397
1768149447273,-0.00135157,0.0051875,0.99655,-2.39974,1.32609,0.914199
1768149447285,0.00670508,-0.00116016,1.00241,-2.28524,1.16579,1.01344
1768149447298,-0.00599024,0.00933789,1.00143,-2.34631,1.21922,1.15847
1768149447311,0.00621679,0.00176953,1.00168,-2.34631,1.11235,1.12794
1768149447324,-0.000619143,-0.00433399,1.00485,-2.43027,1.12762,0.898931
1768149447336,0.00060156,0.00152539,0.995573,-2.26997,1.11235,0.883664
1768149447349,0.00182226,0.00445507,1.00387,-2.28524,1.23449,1.06687
1768149447362,-0.000375003,0.000304684,0.99362,-2.43027,1.27266,0.967634
1768149447375,-0.00110742,0.00176953,1.00729,-2.47608,1.18869,0.952366
1768149447388,0.00328711,0.00176953,0.999968,-2.21653,1.05892,0.76916
1768149447400,0.00670508,0.00201367,1.00363,-2.38447,1.50166,0.898931
1768149447413,0.00475195,-0.00116016,1.00265,-2.50661,1.24212,0.860763
1768149447426,0.00279883,0.00421093,1.01095,-2.33867,1.15052,0.982901
1768149447439,0.00621679,0.00421093,1.00363,-2.28524,1.11235,0.96
1768149447451,0.00401953,0.00396679,1.01071,-2.35394,1.36426,0.837863
1768149447464,0.00426367,0.00665234,0.998991,-2.24707,1.34899,0.982901
1768149447477,0.00108984,-0.00116016,1.00241,-2.41501,1.16579,0.914199
1768149447490,0.0020664,0.00543164,1.00046,-2.39974,1.03602,0.929466
1768149447502,-0.00306055,0.00372265,0.99948,-2.29287,1.16579,0.990534
1768149447515,-0.000130862,0.00201367,0.99948,-2.20127,1.10472,0.876031
1768149447528,-0.00550196,0.00494336,1.00314,-2.41501,1.15052,1.08214
1768149447541,-0.00306055,-0.00408985,0.993864,-2.49134,1.12762,0.807328
1768149447553,0.00328711,0.00469922,1.00094,-2.26234,1.00548,0.906565
1768149447566,0.00621679,0.00250195,1.00656,-2.48371,1.34136,0.944733
1768149447579,0.00377539,-0.00311328,0.998503,-2.36921,1.18869,0.753893
1768149447592,-0.000375003,0.00250195,1.00265,-2.43791,1.20395,0.906565
1768149447605,-0.000130862,0.00396679,1.00241,-2.28524,1.26502,1.0745
1768149447617,0.00133398,-0.00238086,1.00192,-2.48371,1.21922,0.990534
1768149447630,0.00572851,0.000304684,1.00558,-2.35394,1.22685,1.0058
1768149447643,0.000357419,-0.000183597,1.00485,-2.36921,1.27266,0.952366
1768149447656,0.000113279,0.00469922,1.00265,-2.35394,1.24212,1.02107
1768149447668,0.00499609,0.00323437,0.997526,-2.36921,1.34136,1.05924
1768149447681,0.000845701,0.00396679,0.999724,-2.36157,1.21922,1.02107
1768149447694,-0.00135157,0.00347851,0.99948,-2.36157,1.33373,0.937099
1768149447707,-0.000863284,0.00176953,1.00168,-2.29287,1.20395,1.02107
1768149447719,-0.00208399,-0.000183597,1.00583,-2.36921,1.05128,0.883664
1768149447732,0.00108984,-0.00116016,1.00143,-2.28524,1.29556,0.982901
1768149447745,-0.00232813,0.00421093,0.998991,-2.30814,1.11998,0.921832
1768149447758,-0.000130862,-0.000183597,1.00534,-2.43791,1.21159,0.799695
1768149447770,-0.00183985,0.000304684,0.995573,-2.44554,1.07418,0.952366
1768149447783,0.000357419,0.00176953,1.00192,-2.53714,1.22685,0.792061
1768149447796,-0.00183985,0.00103711,1.00729,-2.43791,1.22685,0.891298
1768149447809,0.00108984,0.000792965,1.00217,-2.50661,1.10472,0.952366
1768149447822,0.0074375,-0.00213672,1.00973,-2.24707,1.18105,0.914199
1768149447834,0.00401953,-0.00238086,1.00729,-2.14783,1.34899,0.952366
1768149447847,0.00060156,0.00103711,0.999724,-2.28524,1.21159,0.845496
1768149447860,0.00328711,-0.00360157,1.00094,-2.34631,1.21159,0.982901
1768149447873,0.000845701,0.00103711,1.00754,-2.28524,1.28792,0.944733
1768149447886,-0.00208399,0.00201367,1.00485,-2.2547,1.10472,1.05924
1768149447898,-0.00110742,0.00128125,1.00021,-2.42264,1.29556,0.792061
1768149447911,0.00255468,-0.00555469,1.00656,-2.43027,1.18105,1.0058
1768149447924,-0.00257227,0.00445507,1.00192,-2.43027,1.32609,0.929466
1768149447937,0.00133398,-0.000183597,0.994353,-2.07913,1.27266,0.814962
1768149447949,0.00548437,0.00103711,1.00729,-2.43791,1.12762,0.990534
1768149447962,0.000113279,0.000304684,1.00754,-2.43027,1.16579,0.891298
1768149447975,0.00060156,0.00445507,1.00656,-2.29287,1.25739,0.898931
1768149447988,-0.00501367,0.00152539,1.00217,-2.36921,1.19632,0.990534
1768149448000,0.00182226,-0.000427738,1.00168,-2.44554,1.27266,1.04397
1768149448013,-0.000130862,0.00201367,0.99069,-2.2318,1.15815,0.929466
1768149448026,-0.00379297,0.000548825,1.00119,-2.39974,1.20395,0.837863
1768149448039,0.00279883,0.00445507,0.997038,-2.33867,1.12762,0.883664
1768149448051,0.00304297,0.00176953,0.998259,-2.30814,1.15052,0.990534
1768149448064,0.00328711,0.00274609,1.0029,-2.26997,1.11998,0.967634
1768149448077,0.00524023,-0.000183597,0.995817,-2.43791,1.08945,0.830229
1768149448090,0.000845701,0.000548825,1.00485,-2.14783,1.20395,0.937099
1768149448102,0.00133398,0.00396679,1.00583,-2.2318,1.17342,0.937099
1768149448115,0.00572851,-0.000427738,0.993864,-2.33867,1.15815,0.906565
1768149448128,0.00060156,-0.000671878,1.00119,-2.29287,1.11235,1.01344
1768149448141,0.00450781,-0.002625,1.00656,-2.17837,0.997847,0.937099
1768149448153,0.00621679,0.000548825,0.998503,-2.36157,1.03602,0.799695
1768149448166,0.00060156,6.05434e-05,1.00314,-2.20127,1.17342,1.01344
1768149448179,0.00353125,-0.00506641,0.99362,-2.26234,1.24976,0.944733
1768149448192,0.0020664,0.00128125,1.00583,-2.43027,1.10472,0.914199
1768149448204,-0.00452539,-0.00238086,1.00363,-2.37684,1.20395,1.08214
1768149448217,-0.0081875,0.00396679,0.994841,-2.39974,1.25739,1.02107
1768149448230,0.0020664,0.00103711,1.00143,-2.3005,1.21159,1.03634
1768149448243,0.00377539,0.00469922,1.00265,-2.36157,1.25739,1.01344
1768149448256,0.00304297,0.00469922,0.992644,-2.2776,1.08182,0.845496
1768149448268,-0.00306055,0.00225781,1.00607,-2.40737,1.31082,0.944733
1768149448281,-0.00306055,0.00103711,1.00412,-2.40737,1.09708,0.96
1768149448294,-0.00525782,0.00103711,0.99655,-2.36921,1.31082,0.876031
1768149448307,0.00548437,0.00225781,0.991667,-2.26234,1.41769,0.845496
1768149448319,0.00133398,0.00396679,1.00094,-2.3005,1.21159,0.914199
1768149448332,0.00401953,0.000304684,1.00607,-2.21653,1.11998,0.898931
1768149448345,-0.00159571,0.00421093,1.00363,-2.47608,1.15052,0.883664
1768149448358,-0.000130862,6.05434e-05,0.992888,-2.44554,0.967313,1.04397
